"Time (s)","Gyroscope x (rad/s)","Gyroscope y (rad/s)","Gyroscope z (rad/s)","Absolute (rad/s)"
2.510037700E-2,-1.817322709E-2,-1.450803876E-2,1.069013379E-3,2.327857730E-2
2.725678300E-2,-1.939495653E-2,-1.817322709E-2,-1.527161949E-4,2.657919946E-2
2.941058500E-2,-1.817322709E-2,-1.817322709E-2,-1.527161949E-4,2.570127794E-2
3.156574200E-2,-1.206457894E-2,-9.621120058E-3,-1.374445739E-3,1.549222764E-2
3.372084600E-2,-8.399390616E-3,-9.621120058E-3,1.069013379E-3,1.281633737E-2
3.587595000E-2,-4.734201822E-3,-8.399390616E-3,1.069013379E-3,9.700784464E-3
3.803105400E-2,1.374445739E-3,1.527161949E-4,-1.527161949E-4,1.391310735E-3
4.018615800E-2,9.926552884E-3,7.483093534E-3,-1.527161949E-4,1.243207397E-2
4.234126200E-2,1.114828233E-2,8.704823442E-3,-1.374445739E-3,1.421081458E-2
4.449636700E-2,1.481347065E-2,1.359174121E-2,-1.527161949E-4,2.010466772E-2
4.665147100E-2,1.359174121E-2,1.114828233E-2,-1.527161949E-4,1.757961747E-2
4.880657500E-2,1.359174121E-2,1.114828233E-2,-1.527161949E-4,1.757961747E-2
5.096167900E-2,1.359174121E-2,7.483093534E-3,-1.527161949E-4,1.551629596E-2
5.311678300E-2,9.926552884E-3,8.704823442E-3,1.069013379E-3,1.324587456E-2
5.527194000E-2,6.261364091E-3,3.817904973E-3,1.069013379E-3,7.411063910E-3
5.742699200E-2,2.596175298E-3,-8.399390616E-3,1.069013379E-3,8.856222586E-3
5.958214800E-2,-2.290742937E-3,-4.734201822E-3,1.069013379E-3,5.366838893E-3
6.173720000E-2,-5.955931731E-3,-8.399390616E-3,1.069013379E-3,1.035208554E-2
6.389230400E-2,-8.399390616E-3,-8.399390616E-3,-1.527161949E-4,1.187951378E-2
6.604746000E-2,-1.084284950E-2,-8.399390616E-3,-1.374445739E-3,1.378427543E-2
6.820256500E-2,-1.084284950E-2,-7.177661173E-3,-1.527161949E-4,1.300421191E-2
7.035766900E-2,-9.621120058E-3,-1.069013379E-3,-1.527161949E-4,9.681532059E-3
7.251277300E-2,-7.177661173E-3,3.817904973E-3,-1.527161949E-4,8.131330797E-3
7.466787700E-2,-5.955931731E-3,-1.069013379E-3,1.069013379E-3,6.144810981E-3
7.682298100E-2,1.527161949E-4,6.261364091E-3,-1.527161949E-4,6.265087769E-3
7.897808500E-2,1.374445739E-3,1.374445739E-3,1.069013379E-3,2.218330855E-3
8.113319000E-2,3.817904973E-3,2.596175298E-3,-1.527161949E-4,4.619507203E-3
8.328829400E-2,7.483093534E-3,5.039634649E-3,-1.374445739E-3,9.125990758E-3
8.544345000E-2,9.926552884E-3,2.596175298E-3,-1.374445739E-3,1.035208575E-2
8.759855400E-2,9.926552884E-3,2.596175298E-3,-1.527161949E-4,1.026157398E-2
8.975365800E-2,6.261364091E-3,-3.512472380E-3,-1.527161949E-4,7.180909743E-3
9.190876200E-2,5.039634649E-3,-2.290742937E-3,1.069013379E-3,5.638103422E-3
9.406386700E-2,3.817904973E-3,-1.069013379E-3,1.069013379E-3,4.106333838E-3
9.621897100E-2,2.596175298E-3,-2.290742937E-3,-1.527161949E-4,3.465681985E-3
9.837407500E-2,1.527161949E-4,1.527161949E-4,-1.527161949E-4,2.645122086E-4
1.005291790E-1,-1.069013379E-3,-3.512472380E-3,1.069013379E-3,3.824008555E-3
1.026842830E-1,-3.512472380E-3,-4.734201822E-3,-1.374445739E-3,6.053034793E-3
1.048393870E-1,-2.290742937E-3,-1.069013379E-3,1.069013379E-3,2.744646136E-3
1.069944920E-1,-2.290742937E-3,3.817904973E-3,-1.527161949E-4,4.455022315E-3
1.091495960E-1,-4.734201822E-3,-3.512472380E-3,-1.527161949E-4,5.896901843E-3
1.113047000E-1,-3.512472380E-3,1.527161949E-4,1.069013379E-3,3.674720950E-3
1.134598040E-1,-3.512472380E-3,-4.734201822E-3,-1.527161949E-4,5.896901843E-3
1.156149080E-1,-2.290742937E-3,-1.069013379E-3,-1.527161949E-4,2.532511608E-3
1.177700120E-1,1.527161949E-4,-1.069013379E-3,1.069013379E-3,1.519506974E-3
1.199251170E-1,1.374445739E-3,1.527161949E-4,-1.527161949E-4,1.391310735E-3
1.220802210E-1,2.596175298E-3,2.596175298E-3,1.069013379E-3,3.824008625E-3
1.242353770E-1,1.374445739E-3,-4.734201822E-3,-1.527161949E-4,4.932047265E-3
1.263904810E-1,5.039634649E-3,-1.069013379E-3,1.069013379E-3,5.261510867E-3
1.285455850E-1,3.817904973E-3,-2.290742937E-3,1.069013379E-3,4.578939964E-3
1.307006900E-1,3.817904973E-3,1.374445739E-3,-1.527161949E-4,4.060643017E-3
1.328557940E-1,2.596175298E-3,1.374445739E-3,-1.527161949E-4,2.941521631E-3
1.350108980E-1,1.527161949E-4,1.527161949E-4,1.069013379E-3,1.090611790E-3
1.371660020E-1,1.374445739E-3,2.596175298E-3,1.069013379E-3,3.126022532E-3
1.393211060E-1,1.527161949E-4,7.483093534E-3,-1.527161949E-4,7.486209542E-3
1.414762100E-1,1.527161949E-4,1.527161949E-4,-1.527161949E-4,2.645122086E-4
1.436313150E-1,-3.512472380E-3,2.596175298E-3,1.069013379E-3,4.496707462E-3
1.457864190E-1,-3.512472380E-3,1.527161949E-4,-1.527161949E-4,3.519105951E-3
1.479415750E-1,-2.290742937E-3,1.374445739E-3,-1.527161949E-4,2.675803904E-3
1.500966270E-1,-2.290742937E-3,-1.069013379E-3,1.069013379E-3,2.744646136E-3
1.522517310E-1,-3.512472380E-3,-2.290742937E-3,-1.527161949E-4,4.196223023E-3
1.544068350E-1,1.527161949E-4,-1.069013379E-3,1.069013379E-3,1.519506974E-3
1.565619920E-1,-1.069013379E-3,-2.290742937E-3,-1.527161949E-4,2.532511608E-3
1.587170960E-1,-1.069013379E-3,1.527161949E-4,-1.527161949E-4,1.090611790E-3
1.608722000E-1,1.527161949E-4,-1.069013379E-3,-1.527161949E-4,1.090611790E-3
1.630273040E-1,1.374445739E-3,-2.290742937E-3,1.069013379E-3,2.877393595E-3
1.651824080E-1,1.527161949E-4,1.374445739E-3,1.069013379E-3,1.747916740E-3
1.673375120E-1,1.374445739E-3,2.596175298E-3,1.069013379E-3,3.126022532E-3
1.694926170E-1,6.261364091E-3,8.704823442E-3,-1.527161949E-4,1.072389638E-2
1.716477210E-1,3.817904973E-3,5.039634649E-3,-1.527161949E-4,6.324368586E-3
1.738028250E-1,3.817904973E-3,3.817904973E-3,1.069013379E-3,5.504142656E-3
1.759579290E-1,3.817904973E-3,1.374445739E-3,-1.527161949E-4,4.060643017E-3
1.781130330E-1,2.596175298E-3,1.527161949E-4,-1.527161949E-4,2.605143115E-3
1.802681370E-1,1.527161949E-4,1.527161949E-4,1.069013379E-3,1.090611790E-3
1.824232420E-1,-2.290742937E-3,1.527161949E-4,1.069013379E-3,2.532511608E-3
1.845783460E-1,-2.290742937E-3,1.527161949E-4,1.069013379E-3,2.532511608E-3
1.867334500E-1,-3.512472380E-3,1.527161949E-4,-1.527161949E-4,3.519105951E-3
1.888885540E-1,-2.290742937E-3,1.374445739E-3,1.069013379E-3,2.877393595E-3
1.910437100E-1,-3.512472380E-3,-2.290742937E-3,-1.527161949E-4,4.196223023E-3
1.931988150E-1,-2.290742937E-3,-1.069013379E-3,2.290742937E-3,3.411421407E-3
1.953539190E-1,1.527161949E-4,1.527161949E-4,-1.374445739E-3,1.391310735E-3
1.975089710E-1,1.374445739E-3,-2.290742937E-3,-1.527161949E-4,2.675803904E-3
1.996640750E-1,-1.069013379E-3,-1.069013379E-3,-1.527161949E-4,1.519506974E-3
2.018192310E-1,1.374445739E-3,1.374445739E-3,-1.374445739E-3,2.380609853E-3
2.039743350E-1,2.596175298E-3,5.039634649E-3,-1.527161949E-4,5.671099171E-3
2.061294400E-1,2.596175298E-3,-5.955931731E-3,-1.527161949E-4,6.498966933E-3
2.082845440E-1,1.374445739E-3,1.374445739E-3,-1.527161949E-4,1.949749834E-3
2.104396480E-1,1.527161949E-4,1.527161949E-4,-1.527161949E-4,2.645122086E-4
2.125947520E-1,1.527161949E-4,2.596175298E-3,2.290742937E-3,3.465681985E-3
2.147498560E-1,1.374445739E-3,2.596175298E-3,-1.527161949E-4,2.941521631E-3
2.169049600E-1,1.374445739E-3,2.596175298E-3,1.069013379E-3,3.126022532E-3
2.190601170E-1,1.527161949E-4,2.596175298E-3,-1.527161949E-4,2.605143115E-3
2.212151690E-1,-1.069013379E-3,-2.290742937E-3,1.069013379E-3,2.744646136E-3
2.233702730E-1,1.527161949E-4,1.374445739E-3,-1.527161949E-4,1.391310735E-3
2.255253770E-1,1.527161949E-4,1.527161949E-4,1.069013379E-3,1.090611790E-3
2.276804810E-1,-2.290742937E-3,-1.069013379E-3,-1.527161949E-4,2.532511608E-3
2.298356370E-1,-2.290742937E-3,1.527161949E-4,1.069013379E-3,2.532511608E-3
2.319907420E-1,-1.069013379E-3,-1.069013379E-3,1.069013379E-3,1.851585486E-3
2.341458460E-1,-1.069013379E-3,1.374445739E-3,-1.527161949E-4,1.747916740E-3
2.363009500E-1,-1.069013379E-3,2.596175298E-3,1.069013379E-3,3.004281176E-3
2.384560540E-1,3.817904973E-3,8.704823442E-3,-1.527161949E-4,9.506506812E-3
2.406111580E-1,2.596175298E-3,6.261364091E-3,-1.527161949E-4,6.779979992E-3
2.427662620E-1,2.596175298E-3,5.039634649E-3,-1.374445739E-3,5.833279066E-3
2.449213670E-1,1.374445739E-3,1.374445739E-3,-1.374445739E-3,2.380609853E-3
2.470764710E-1,1.527161949E-4,3.817904973E-3,-1.527161949E-4,3.824008742E-3
2.492315750E-1,1.374445739E-3,2.596175298E-3,-1.527161949E-4,2.941521631E-3
2.513867310E-1,1.374445739E-3,2.596175298E-3,-1.527161949E-4,2.941521631E-3
2.535417830E-1,1.374445739E-3,1.374445739E-3,2.290742937E-3,3.004281176E-3
2.556968870E-1,1.527161949E-4,3.817904973E-3,-1.527161949E-4,3.824008742E-3
2.578520440E-1,-2.290742937E-3,5.039634649E-3,-1.527161949E-4,5.537936695E-3
2.600070960E-1,-1.069013379E-3,1.374445739E-3,1.069013379E-3,2.043203440E-3
2.621622520E-1,-1.069013379E-3,1.527161949E-4,2.290742937E-3,2.532511608E-3
2.643173560E-1,-2.290742937E-3,2.596175298E-3,-1.527161949E-4,3.465681985E-3
2.664724600E-1,1.527161949E-4,1.374445739E-3,-1.527161949E-4,1.391310735E-3
2.686275650E-1,1.527161949E-4,5.039634649E-3,-1.527161949E-4,5.044260289E-3
2.707826690E-1,1.527161949E-4,1.527161949E-4,-1.527161949E-4,2.645122086E-4
2.729377730E-1,2.596175298E-3,3.817904973E-3,-1.527161949E-4,4.619507203E-3
2.750928770E-1,1.374445739E-3,7.483093534E-3,1.069013379E-3,7.683005891E-3
2.772479810E-1,3.817904973E-3,8.704823442E-3,-1.527161949E-4,9.506506812E-3
2.794030850E-1,1.527161949E-4,1.527161949E-4,-1.527161949E-4,2.645122086E-4
2.815581900E-1,1.527161949E-4,1.527161949E-4,-1.527161949E-4,2.645122086E-4
2.837132940E-1,1.374445739E-3,1.374445739E-3,-1.527161949E-4,1.949749834E-3
2.858683980E-1,1.527161949E-4,-1.069013379E-3,1.069013379E-3,1.519506974E-3
2.880235020E-1,1.374445739E-3,1.374445739E-3,-1.527161949E-4,1.949749834E-3
2.901786580E-1,-1.069013379E-3,1.374445739E-3,-1.527161949E-4,1.747916740E-3
2.923337100E-1,1.527161949E-4,7.483093534E-3,-1.374445739E-3,7.609803687E-3
2.944888670E-1,-2.290742937E-3,-1.069013379E-3,1.069013379E-3,2.744646136E-3
2.966439710E-1,1.527161949E-4,1.527161949E-4,-1.527161949E-4,2.645122086E-4
2.987990230E-1,-2.290742937E-3,1.374445739E-3,-1.527161949E-4,2.675803904E-3
3.009541790E-1,-2.290742937E-3,-1.069013379E-3,-1.527161949E-4,2.532511608E-3
3.031092830E-1,-1.069013379E-3,1.374445739E-3,-1.527161949E-4,1.747916740E-3
3.052643870E-1,1.527161949E-4,5.039634649E-3,-1.527161949E-4,5.044260289E-3
3.074194920E-1,1.527161949E-4,1.374445739E-3,-1.374445739E-3,1.949749834E-3
3.095745960E-1,1.527161949E-4,2.596175298E-3,-1.374445739E-3,2.941521631E-3
3.117297000E-1,1.527161949E-4,-2.290742937E-3,1.069013379E-3,2.532511608E-3
3.138848040E-1,1.374445739E-3,1.527161949E-4,-1.374445739E-3,1.949749834E-3
3.160399080E-1,1.527161949E-4,5.039634649E-3,-1.527161949E-4,5.044260289E-3
3.181950120E-1,1.374445739E-3,-3.512472380E-3,-1.527161949E-4,3.774902058E-3
3.203501170E-1,2.596175298E-3,8.704823442E-3,-1.527161949E-4,9.085009607E-3
3.225052210E-1,2.596175298E-3,5.039634649E-3,-1.527161949E-4,5.671099171E-3
3.246603250E-1,-1.069013379E-3,-2.290742937E-3,-1.527161949E-4,2.532511608E-3
3.268154810E-1,1.527161949E-4,1.374445739E-3,1.069013379E-3,1.747916740E-3
3.289705330E-1,-1.069013379E-3,-1.069013379E-3,-1.527161949E-4,1.519506974E-3
3.311256370E-1,1.527161949E-4,3.817904973E-3,-1.527161949E-4,3.824008742E-3
3.332807420E-1,1.527161949E-4,2.596175298E-3,1.069013379E-3,2.811803339E-3
3.354358980E-1,-1.069013379E-3,-1.069013379E-3,1.069013379E-3,1.851585486E-3
3.375910020E-1,-2.290742937E-3,1.527161949E-4,-1.527161949E-4,2.300901492E-3
3.397461060E-1,-1.069013379E-3,2.596175298E-3,-1.527161949E-4,2.811803339E-3
3.419012100E-1,-1.069013379E-3,1.527161949E-4,1.069013379E-3,1.519506974E-3
3.440563150E-1,-1.069013379E-3,1.374445739E-3,-1.527161949E-4,1.747916740E-3
3.462114190E-1,-1.069013379E-3,1.527161949E-4,-1.374445739E-3,1.747916740E-3
3.483665230E-1,1.527161949E-4,1.374445739E-3,-1.527161949E-4,1.391310735E-3
3.505216270E-1,2.596175298E-3,5.039634649E-3,-1.527161949E-4,5.671099171E-3
3.526767310E-1,2.596175298E-3,6.261364091E-3,-1.527161949E-4,6.779979992E-3
3.548318350E-1,1.374445739E-3,6.261364091E-3,-1.374445739E-3,6.556133194E-3
3.569869400E-1,2.596175298E-3,7.483093534E-3,-1.527161949E-4,7.922129590E-3
3.591420440E-1,2.596175298E-3,7.483093534E-3,-1.527161949E-4,7.922129590E-3
3.612971480E-1,-1.069013379E-3,1.374445739E-3,-1.527161949E-4,1.747916740E-3
3.634522520E-1,2.596175298E-3,6.261364091E-3,-1.527161949E-4,6.779979992E-3
3.656073560E-1,-1.069013379E-3,1.374445739E-3,-1.374445739E-3,2.218330855E-3
3.677625120E-1,-2.290742937E-3,-2.290742937E-3,-1.527161949E-4,3.243197288E-3
3.699176170E-1,1.527161949E-4,1.374445739E-3,-1.527161949E-4,1.391310735E-3
3.720727210E-1,-1.069013379E-3,3.817904973E-3,-1.374445739E-3,4.196223192E-3
3.742278250E-1,-1.069013379E-3,5.039634649E-3,1.069013379E-3,5.261510867E-3
3.763829290E-1,1.527161949E-4,1.374445739E-3,-1.527161949E-4,1.391310735E-3
3.785380330E-1,-3.512472380E-3,-2.290742937E-3,1.069013379E-3,4.327557629E-3
3.806931370E-1,-1.069013379E-3,2.596175298E-3,-1.527161949E-4,2.811803339E-3
3.828482420E-1,-1.069013379E-3,-2.290742937E-3,1.069013379E-3,2.744646136E-3
3.850033460E-1,-2.290742937E-3,-2.290742937E-3,1.069013379E-3,3.411421407E-3
3.871584500E-1,1.527161949E-4,1.374445739E-3,-1.527161949E-4,1.391310735E-3
3.893135540E-1,1.527161949E-4,1.527161949E-4,1.069013379E-3,1.090611790E-3
3.914686580E-1,2.596175298E-3,2.596175298E-3,1.069013379E-3,3.824008625E-3
3.936237620E-1,1.527161949E-4,1.374445739E-3,-1.374445739E-3,1.949749834E-3
3.957788670E-1,1.374445739E-3,2.596175298E-3,-1.527161949E-4,2.941521631E-3
3.979339710E-1,1.374445739E-3,2.596175298E-3,-1.527161949E-4,2.941521631E-3
4.000890750E-1,3.817904973E-3,3.817904973E-3,-1.527161949E-4,5.401492295E-3
4.022442310E-1,3.817904973E-3,6.261364091E-3,-1.527161949E-4,7.335148322E-3
4.043992830E-1,-1.069013379E-3,-2.290742937E-3,-1.527161949E-4,2.532511608E-3
4.065543870E-1,2.596175298E-3,5.039634649E-3,1.069013379E-3,5.768954253E-3
4.087095440E-1,-1.069013379E-3,2.596175298E-3,-1.527161949E-4,2.811803339E-3
4.108646480E-1,-1.069013379E-3,-2.290742937E-3,1.069013379E-3,2.744646136E-3
4.130197520E-1,-1.069013379E-3,3.817904973E-3,1.069013379E-3,4.106333838E-3
4.151748040E-1,-2.290742937E-3,1.374445739E-3,-1.527161949E-4,2.675803904E-3
4.173299600E-1,-1.069013379E-3,1.374445739E-3,-1.527161949E-4,1.747916740E-3
4.194850650E-1,-2.290742937E-3,1.374445739E-3,-1.527161949E-4,2.675803904E-3
4.216401690E-1,1.527161949E-4,1.374445739E-3,-1.527161949E-4,1.391310735E-3
4.237952730E-1,-1.069013379E-3,1.527161949E-4,-1.527161949E-4,1.090611790E-3
4.259503770E-1,-2.290742937E-3,1.527161949E-4,-1.527161949E-4,2.300901492E-3
4.281054810E-1,1.527161949E-4,2.596175298E-3,-1.527161949E-4,2.605143115E-3
4.302605850E-1,1.527161949E-4,3.817904973E-3,-1.527161949E-4,3.824008742E-3
4.324156900E-1,1.527161949E-4,3.817904973E-3,-1.527161949E-4,3.824008742E-3
4.345707940E-1,1.374445739E-3,1.527161949E-4,1.069013379E-3,1.747916740E-3
4.367258980E-1,1.374445739E-3,2.596175298E-3,-1.527161949E-4,2.941521631E-3
4.388810020E-1,2.596175298E-3,5.039634649E-3,1.069013379E-3,5.768954253E-3
4.410361580E-1,1.527161949E-4,2.596175298E-3,1.069013379E-3,2.811803339E-3
4.431912620E-1,-2.290742937E-3,-1.069013379E-3,-1.527161949E-4,2.532511608E-3
4.453463670E-1,-1.069013379E-3,1.527161949E-4,-1.527161949E-4,1.090611790E-3
4.475014710E-1,-3.512472380E-3,1.374445739E-3,-1.527161949E-4,3.774902058E-3
4.496565230E-1,-2.290742937E-3,-1.069013379E-3,1.069013379E-3,2.744646136E-3
4.518116790E-1,-2.290742937E-3,3.817904973E-3,-1.374445739E-3,4.659721309E-3
4.539667830E-1,-1.069013379E-3,1.374445739E-3,-1.527161949E-4,1.747916740E-3
4.561218870E-1,1.374445739E-3,2.596175298E-3,1.069013379E-3,3.126022532E-3
4.582769920E-1,-1.069013379E-3,3.817904973E-3,-1.527161949E-4,3.967683232E-3
4.604320960E-1,1.374445739E-3,3.817904973E-3,-1.527161949E-4,4.060643017E-3
4.625872000E-1,1.527161949E-4,1.527161949E-4,-1.527161949E-4,2.645122086E-4
4.647423040E-1,1.527161949E-4,1.374445739E-3,1.069013379E-3,1.747916740E-3
4.668974080E-1,2.596175298E-3,3.817904973E-3,-1.527161949E-4,4.619507203E-3
4.690525120E-1,1.374445739E-3,3.817904973E-3,1.069013379E-3,4.196223192E-3
4.712076170E-1,1.527161949E-4,1.527161949E-4,-1.527161949E-4,2.645122086E-4
4.733627210E-1,-1.069013379E-3,1.527161949E-4,-1.527161949E-4,1.090611790E-3
4.755178250E-1,1.527161949E-4,-4.734201822E-3,-1.527161949E-4,4.739125591E-3
4.776729290E-1,1.374445739E-3,3.817904973E-3,-1.374445739E-3,4.284226951E-3
4.798280330E-1,1.374445739E-3,-1.069013379E-3,-1.527161949E-4,1.747916740E-3
4.819831370E-1,1.527161949E-4,3.817904973E-3,1.069013379E-3,3.967683232E-3
4.841382940E-1,1.374445739E-3,5.039634649E-3,-1.527161949E-4,5.225929651E-3
4.862933980E-1,-1.069013379E-3,1.374445739E-3,-1.527161949E-4,1.747916740E-3
4.884485020E-1,1.527161949E-4,2.596175298E-3,-1.374445739E-3,2.941521631E-3
4.906036060E-1,1.527161949E-4,7.483093534E-3,-1.374445739E-3,7.609803687E-3
4.927587100E-1,-1.069013379E-3,1.374445739E-3,-1.527161949E-4,1.747916740E-3
4.949138150E-1,-2.290742937E-3,2.596175298E-3,1.069013379E-3,3.623592001E-3
4.970689190E-1,1.527161949E-4,-1.069013379E-3,1.069013379E-3,1.519506974E-3
4.992240230E-1,-1.069013379E-3,1.527161949E-4,-1.527161949E-4,1.090611790E-3
5.013791270E-1,1.527161949E-4,-3.512472380E-3,1.069013379E-3,3.674720950E-3
5.035342310E-1,1.527161949E-4,1.374445739E-3,-1.527161949E-4,1.391310735E-3
5.056893350E-1,1.374445739E-3,-1.069013379E-3,-1.527161949E-4,1.747916740E-3
5.078444400E-1,1.527161949E-4,-4.734201822E-3,-1.527161949E-4,4.739125591E-3
5.099995440E-1,2.596175298E-3,1.374445739E-3,-1.527161949E-4,2.941521631E-3
5.121547000E-1,-1.069013379E-3,1.527161949E-4,-1.374445739E-3,1.747916740E-3
5.143098040E-1,-1.069013379E-3,-1.069013379E-3,-1.527161949E-4,1.519506974E-3
5.164649080E-1,1.374445739E-3,2.596175298E-3,1.069013379E-3,3.126022532E-3
5.186200120E-1,-1.069013379E-3,1.374445739E-3,-1.527161949E-4,1.747916740E-3
5.207751170E-1,-1.069013379E-3,1.374445739E-3,-1.527161949E-4,1.747916740E-3
5.229302210E-1,-1.069013379E-3,-2.290742937E-3,-1.374445739E-3,2.877393595E-3
5.250852730E-1,1.527161949E-4,1.527161949E-4,-1.527161949E-4,2.645122086E-4
5.272404290E-1,-1.069013379E-3,1.527161949E-4,-1.527161949E-4,1.090611790E-3
5.293955330E-1,-2.290742937E-3,1.527161949E-4,-1.527161949E-4,2.300901492E-3
5.315506370E-1,-2.290742937E-3,1.374445739E-3,-1.527161949E-4,2.675803904E-3
5.337057420E-1,1.527161949E-4,-1.069013379E-3,-1.527161949E-4,1.090611790E-3
5.358608460E-1,-1.069013379E-3,1.527161949E-4,-1.527161949E-4,1.090611790E-3
5.380159500E-1,-1.069013379E-3,1.527161949E-4,1.069013379E-3,1.519506974E-3
5.401710540E-1,-1.069013379E-3,-3.512472380E-3,-1.527161949E-4,3.674720950E-3
5.423261580E-1,1.527161949E-4,1.374445739E-3,-1.527161949E-4,1.391310735E-3
5.444812620E-1,1.527161949E-4,-2.290742937E-3,1.069013379E-3,2.532511608E-3
5.466363670E-1,1.374445739E-3,1.374445739E-3,1.069013379E-3,2.218330855E-3
5.487914710E-1,2.596175298E-3,3.817904973E-3,-1.527161949E-4,4.619507203E-3
5.509465750E-1,1.527161949E-4,5.039634649E-3,1.069013379E-3,5.154030387E-3
5.531016790E-1,2.596175298E-3,1.374445739E-3,1.069013379E-3,3.126022532E-3
5.552567830E-1,1.374445739E-3,-1.069013379E-3,1.069013379E-3,2.043203440E-3
5.574119400E-1,-1.069013379E-3,-1.069013379E-3,-1.527161949E-4,1.519506974E-3
5.595670440E-1,-1.069013379E-3,-1.069013379E-3,1.069013379E-3,1.851585486E-3
5.617221480E-1,-2.290742937E-3,-1.069013379E-3,1.069013379E-3,2.744646136E-3
5.638772520E-1,1.527161949E-4,3.817904973E-3,1.069013379E-3,3.967683232E-3
5.660323560E-1,1.527161949E-4,1.527161949E-4,1.069013379E-3,1.090611790E-3
5.681874600E-1,-2.290742937E-3,1.527161949E-4,-1.374445739E-3,2.675803904E-3
5.703425650E-1,-2.290742937E-3,-2.290742937E-3,1.069013379E-3,3.411421407E-3
5.724976690E-1,-2.290742937E-3,-1.069013379E-3,1.069013379E-3,2.744646136E-3
5.746527730E-1,-1.069013379E-3,-1.069013379E-3,-1.527161949E-4,1.519506974E-3
5.768078770E-1,-1.069013379E-3,-3.512472380E-3,-1.527161949E-4,3.674720950E-3
5.789629810E-1,1.527161949E-4,1.527161949E-4,1.069013379E-3,1.090611790E-3
5.811180850E-1,1.374445739E-3,2.596175298E-3,-1.527161949E-4,2.941521631E-3
5.832732420E-1,-1.069013379E-3,-1.069013379E-3,1.069013379E-3,1.851585486E-3
5.854282940E-1,-1.069013379E-3,-1.069013379E-3,1.069013379E-3,1.851585486E-3
5.875833980E-1,1.527161949E-4,1.374445739E-3,-1.527161949E-4,1.391310735E-3
5.897385540E-1,-1.069013379E-3,-2.290742937E-3,-1.527161949E-4,2.532511608E-3
5.918936060E-1,-1.069013379E-3,-1.069013379E-3,1.069013379E-3,1.851585486E-3
5.940487100E-1,1.527161949E-4,2.596175298E-3,-1.527161949E-4,2.605143115E-3
5.962038150E-1,1.374445739E-3,1.374445739E-3,-1.527161949E-4,1.949749834E-3
5.983589710E-1,1.527161949E-4,-2.290742937E-3,1.069013379E-3,2.532511608E-3
6.005140750E-1,2.596175298E-3,5.039634649E-3,-1.527161949E-4,5.671099171E-3
6.026691790E-1,-1.069013379E-3,1.374445739E-3,-1.374445739E-3,2.218330855E-3
6.048242830E-1,1.527161949E-4,-1.069013379E-3,-1.527161949E-4,1.090611790E-3
6.069793870E-1,-1.069013379E-3,1.527161949E-4,1.069013379E-3,1.519506974E-3
6.091344920E-1,1.527161949E-4,1.374445739E-3,-1.527161949E-4,1.391310735E-3
6.112895960E-1,-3.512472380E-3,-5.955931731E-3,-1.527161949E-4,6.916206130E-3
6.134447000E-1,-1.069013379E-3,1.527161949E-4,1.069013379E-3,1.519506974E-3
6.155998040E-1,1.527161949E-4,-2.290742937E-3,1.069013379E-3,2.532511608E-3
6.177549080E-1,1.527161949E-4,-4.734201822E-3,-1.527161949E-4,4.739125591E-3
6.199100120E-1,1.374445739E-3,1.527161949E-4,-1.527161949E-4,1.391310735E-3
6.220651170E-1,1.374445739E-3,1.527161949E-4,-1.527161949E-4,1.391310735E-3
6.242202730E-1,1.374445739E-3,1.374445739E-3,-1.527161949E-4,1.949749834E-3
6.263753770E-1,-1.069013379E-3,-2.290742937E-3,-1.374445739E-3,2.877393595E-3
6.285304290E-1,-1.069013379E-3,1.527161949E-4,-1.527161949E-4,1.090611790E-3
6.306855330E-1,1.374445739E-3,2.596175298E-3,1.069013379E-3,3.126022532E-3
6.328406900E-1,1.527161949E-4,-1.069013379E-3,1.069013379E-3,1.519506974E-3
6.349957940E-1,-2.290742937E-3,-5.955931731E-3,1.069013379E-3,6.470194401E-3
6.371508980E-1,-1.069013379E-3,-3.512472380E-3,1.069013379E-3,3.824008555E-3
6.393060020E-1,-2.290742937E-3,-3.512472380E-3,-1.527161949E-4,4.196223023E-3
6.414611060E-1,1.374445739E-3,3.817904973E-3,1.069013379E-3,4.196223192E-3
6.436162100E-1,1.527161949E-4,6.261364091E-3,-1.527161949E-4,6.265087769E-3
6.457713150E-1,-1.069013379E-3,1.374445739E-3,-1.527161949E-4,1.747916740E-3
6.479264190E-1,-1.069013379E-3,-3.512472380E-3,-1.527161949E-4,3.674720950E-3
6.500815230E-1,-1.069013379E-3,-2.290742937E-3,-1.527161949E-4,2.532511608E-3
6.522366270E-1,1.527161949E-4,-2.290742937E-3,-1.527161949E-4,2.300901492E-3
6.543917310E-1,1.527161949E-4,1.374445739E-3,-1.527161949E-4,1.391310735E-3
6.565468350E-1,-1.069013379E-3,-1.069013379E-3,-1.527161949E-4,1.519506974E-3
6.587019400E-1,1.527161949E-4,1.374445739E-3,-1.527161949E-4,1.391310735E-3
6.608570440E-1,3.817904973E-3,6.261364091E-3,-1.374445739E-3,7.461245188E-3
6.630121480E-1,-1.069013379E-3,-2.290742937E-3,1.069013379E-3,2.744646136E-3
6.651672520E-1,-1.069013379E-3,-2.290742937E-3,-1.527161949E-4,2.532511608E-3
6.673224080E-1,1.527161949E-4,-3.512472380E-3,-1.527161949E-4,3.519105951E-3
6.694775120E-1,1.527161949E-4,-3.512472380E-3,1.069013379E-3,3.674720950E-3
6.716326170E-1,1.527161949E-4,-8.399390616E-3,-1.527161949E-4,8.402166815E-3
6.737877210E-1,1.527161949E-4,1.527161949E-4,-1.527161949E-4,2.645122086E-4
6.759427730E-1,1.374445739E-3,-2.290742937E-3,-1.527161949E-4,2.675803904E-3
6.780979290E-1,-1.069013379E-3,-1.069013379E-3,-1.527161949E-4,1.519506974E-3
6.802530330E-1,1.527161949E-4,-3.512472380E-3,-1.527161949E-4,3.519105951E-3
6.824081370E-1,1.374445739E-3,2.596175298E-3,-1.527161949E-4,2.941521631E-3
6.845632420E-1,-1.069013379E-3,-4.734201822E-3,-1.527161949E-4,4.855798465E-3
6.867183460E-1,-1.069013379E-3,1.527161949E-4,-1.527161949E-4,1.090611790E-3
6.888734500E-1,-1.069013379E-3,-2.290742937E-3,-1.374445739E-3,2.877393595E-3
6.910285540E-1,1.527161949E-4,-2.290742937E-3,-1.527161949E-4,2.300901492E-3
6.931836580E-1,1.374445739E-3,1.374445739E-3,1.069013379E-3,2.218330855E-3
6.953387620E-1,1.527161949E-4,1.374445739E-3,-1.374445739E-3,1.949749834E-3
6.974938670E-1,-1.069013379E-3,-1.069013379E-3,1.069013379E-3,1.851585486E-3
6.996489710E-1,1.527161949E-4,-1.069013379E-3,-1.527161949E-4,1.090611790E-3
7.018040750E-1,1.527161949E-4,1.374445739E-3,1.069013379E-3,1.747916740E-3
7.039591790E-1,1.527161949E-4,-3.512472380E-3,1.069013379E-3,3.674720950E-3
7.061142830E-1,1.527161949E-4,-1.069013379E-3,1.069013379E-3,1.519506974E-3
7.082693870E-1,1.374445739E-3,-1.069013379E-3,-1.527161949E-4,1.747916740E-3
7.104245440E-1,1.374445739E-3,-2.290742937E-3,-1.527161949E-4,2.675803904E-3
7.125796480E-1,1.374445739E-3,1.527161949E-4,1.069013379E-3,1.747916740E-3
7.147347000E-1,-1.069013379E-3,1.527161949E-4,1.069013379E-3,1.519506974E-3
7.168898560E-1,1.374445739E-3,1.374445739E-3,-1.527161949E-4,1.949749834E-3
7.190449600E-1,2.596175298E-3,2.596175298E-3,-1.527161949E-4,3.674721022E-3
7.212000650E-1,1.374445739E-3,-1.069013379E-3,-1.527161949E-4,1.747916740E-3
7.233551690E-1,1.527161949E-4,-3.512472380E-3,-1.527161949E-4,3.519105951E-3
7.255102730E-1,1.527161949E-4,-3.512472380E-3,1.069013379E-3,3.674720950E-3
7.276653770E-1,1.374445739E-3,1.527161949E-4,-1.527161949E-4,1.391310735E-3
7.298204810E-1,1.527161949E-4,3.817904973E-3,-1.527161949E-4,3.824008742E-3
7.319755850E-1,1.527161949E-4,2.596175298E-3,-1.527161949E-4,2.605143115E-3
7.341306900E-1,1.527161949E-4,-4.734201822E-3,-1.527161949E-4,4.739125591E-3
7.362857940E-1,-1.069013379E-3,-2.290742937E-3,1.069013379E-3,2.744646136E-3
7.384408980E-1,1.527161949E-4,-1.069013379E-3,1.069013379E-3,1.519506974E-3
7.405960020E-1,-2.290742937E-3,-2.290742937E-3,1.069013379E-3,3.411421407E-3
7.427511060E-1,1.374445739E-3,1.374445739E-3,-1.527161949E-4,1.949749834E-3
7.449062100E-1,1.527161949E-4,1.527161949E-4,1.069013379E-3,1.090611790E-3
7.470613150E-1,3.817904973E-3,-1.069013379E-3,-1.527161949E-4,3.967683232E-3
7.492164710E-1,1.527161949E-4,1.527161949E-4,-1.374445739E-3,1.391310735E-3
7.513715750E-1,-1.069013379E-3,-5.955931731E-3,1.069013379E-3,6.144810981E-3
7.535266790E-1,1.374445739E-3,-1.069013379E-3,-1.527161949E-4,1.747916740E-3
7.556817830E-1,1.527161949E-4,-3.512472380E-3,1.069013379E-3,3.674720950E-3
7.578368870E-1,1.374445739E-3,-2.290742937E-3,-1.527161949E-4,2.675803904E-3
7.599919920E-1,2.596175298E-3,-1.069013379E-3,-1.527161949E-4,2.811803339E-3
7.621470960E-1,1.527161949E-4,-4.734201822E-3,-1.527161949E-4,4.739125591E-3
7.643022000E-1,-1.069013379E-3,1.527161949E-4,1.069013379E-3,1.519506974E-3
7.664573040E-1,1.527161949E-4,-1.069013379E-3,-1.527161949E-4,1.090611790E-3
7.686124080E-1,-1.069013379E-3,1.527161949E-4,-1.527161949E-4,1.090611790E-3
7.707675120E-1,1.527161949E-4,-2.290742937E-3,1.069013379E-3,2.532511608E-3
7.729226170E-1,1.527161949E-4,1.527161949E-4,-1.527161949E-4,2.645122086E-4
7.750777210E-1,1.527161949E-4,-3.512472380E-3,1.069013379E-3,3.674720950E-3
7.772328250E-1,1.527161949E-4,3.817904973E-3,1.069013379E-3,3.967683232E-3
7.793879290E-1,-1.069013379E-3,-1.069013379E-3,-1.527161949E-4,1.519506974E-3
7.815430330E-1,1.374445739E-3,-2.290742937E-3,1.069013379E-3,2.877393595E-3
7.836981370E-1,1.527161949E-4,2.596175298E-3,-1.527161949E-4,2.605143115E-3
7.858532420E-1,-1.069013379E-3,1.527161949E-4,-1.527161949E-4,1.090611790E-3
7.880083460E-1,-2.290742937E-3,-2.290742937E-3,1.069013379E-3,3.411421407E-3
7.901634500E-1,-1.069013379E-3,-1.069013379E-3,1.069013379E-3,1.851585486E-3
7.923186060E-1,1.374445739E-3,1.527161949E-4,-1.527161949E-4,1.391310735E-3
7.944737100E-1,-1.069013379E-3,-2.290742937E-3,-1.527161949E-4,2.532511608E-3
7.966288150E-1,-1.069013379E-3,-1.069013379E-3,1.069013379E-3,1.851585486E-3
7.987839190E-1,-1.069013379E-3,-1.069013379E-3,1.069013379E-3,1.851585486E-3
8.009389710E-1,-1.069013379E-3,-3.512472380E-3,-1.527161949E-4,3.674720950E-3
8.030941270E-1,1.527161949E-4,-3.512472380E-3,-1.527161949E-4,3.519105951E-3
8.052492310E-1,1.527161949E-4,-1.069013379E-3,1.069013379E-3,1.519506974E-3
8.074043350E-1,-1.069013379E-3,2.596175298E-3,-1.527161949E-4,2.811803339E-3
8.095594400E-1,1.527161949E-4,-1.069013379E-3,1.069013379E-3,1.519506974E-3
8.117145440E-1,-1.069013379E-3,-3.512472380E-3,-1.527161949E-4,3.674720950E-3
8.138696480E-1,-2.290742937E-3,-3.512472380E-3,-1.527161949E-4,4.196223023E-3
8.160247520E-1,1.374445739E-3,-2.290742937E-3,1.069013379E-3,2.877393595E-3
8.181798560E-1,2.596175298E-3,-3.512472380E-3,-1.527161949E-4,4.370458859E-3
8.203349600E-1,1.527161949E-4,-3.512472380E-3,-1.527161949E-4,3.519105951E-3
8.224900650E-1,-2.290742937E-3,-7.177661173E-3,1.069013379E-3,7.609803724E-3
8.246451690E-1,1.527161949E-4,1.527161949E-4,-1.527161949E-4,2.645122086E-4
8.268002730E-1,1.527161949E-4,-3.512472380E-3,-1.527161949E-4,3.519105951E-3
8.289554290E-1,1.527161949E-4,-3.512472380E-3,1.069013379E-3,3.674720950E-3
8.311105330E-1,-1.069013379E-3,-3.512472380E-3,1.069013379E-3,3.824008555E-3
8.332655850E-1,1.374445739E-3,1.527161949E-4,1.069013379E-3,1.747916740E-3
8.354207420E-1,-1.069013379E-3,-4.734201822E-3,-1.527161949E-4,4.855798465E-3
8.375758460E-1,-1.069013379E-3,-2.290742937E-3,-1.527161949E-4,2.532511608E-3
8.397309500E-1,1.527161949E-4,-1.069013379E-3,-1.527161949E-4,1.090611790E-3
8.418860540E-1,-1.069013379E-3,-2.290742937E-3,1.069013379E-3,2.744646136E-3
8.440411580E-1,1.374445739E-3,1.374445739E-3,-1.374445739E-3,2.380609853E-3
8.461962620E-1,-1.069013379E-3,-2.290742937E-3,-1.527161949E-4,2.532511608E-3
8.483513670E-1,1.527161949E-4,-1.069013379E-3,-1.527161949E-4,1.090611790E-3
8.505064710E-1,1.374445739E-3,1.527161949E-4,-1.527161949E-4,1.391310735E-3
8.526615750E-1,1.527161949E-4,1.527161949E-4,-1.374445739E-3,1.391310735E-3
8.548166790E-1,1.527161949E-4,-1.069013379E-3,-1.374445739E-3,1.747916740E-3
8.569717830E-1,-2.290742937E-3,-5.955931731E-3,-1.527161949E-4,6.383098638E-3
8.591268870E-1,1.527161949E-4,-1.069013379E-3,-1.527161949E-4,1.090611790E-3
8.612819920E-1,-1.069013379E-3,1.527161949E-4,-1.374445739E-3,1.747916740E-3
8.634370960E-1,1.374445739E-3,1.527161949E-4,-1.527161949E-4,1.391310735E-3
8.655922000E-1,1.374445739E-3,1.374445739E-3,-1.527161949E-4,1.949749834E-3
8.677473040E-1,1.527161949E-4,-1.069013379E-3,-1.527161949E-4,1.090611790E-3
8.699024080E-1,1.527161949E-4,1.527161949E-4,-1.527161949E-4,2.645122086E-4
8.720575650E-1,-1.069013379E-3,-3.512472380E-3,-1.527161949E-4,3.674720950E-3
8.742126690E-1,-1.069013379E-3,-2.290742937E-3,-1.527161949E-4,2.532511608E-3
8.763677210E-1,1.374445739E-3,-3.512472380E-3,1.069013379E-3,3.920376629E-3
8.785228770E-1,-1.069013379E-3,-3.512472380E-3,-1.527161949E-4,3.674720950E-3
8.806779810E-1,1.527161949E-4,-1.069013379E-3,1.069013379E-3,1.519506974E-3
8.828330850E-1,-1.069013379E-3,-1.069013379E-3,-1.527161949E-4,1.519506974E-3
8.849881900E-1,1.527161949E-4,-7.177661173E-3,1.069013379E-3,7.258438658E-3
8.871432940E-1,1.527161949E-4,-1.069013379E-3,-1.527161949E-4,1.090611790E-3
8.892983980E-1,-1.069013379E-3,-2.290742937E-3,-1.527161949E-4,2.532511608E-3
8.914535020E-1,-1.069013379E-3,-3.512472380E-3,-1.527161949E-4,3.674720950E-3
8.936086060E-1,1.527161949E-4,-1.069013379E-3,-1.527161949E-4,1.090611790E-3
8.957637100E-1,1.374445739E-3,1.527161949E-4,-1.374445739E-3,1.949749834E-3
8.979188150E-1,-1.069013379E-3,-2.290742937E-3,-1.527161949E-4,2.532511608E-3
9.000739190E-1,-2.290742937E-3,-4.734201822E-3,-1.527161949E-4,5.261510462E-3
9.022290230E-1,-2.290742937E-3,1.374445739E-3,-1.527161949E-4,2.675803904E-3
9.043841270E-1,1.374445739E-3,2.596175298E-3,-1.527161949E-4,2.941521631E-3
9.065392310E-1,1.374445739E-3,1.374445739E-3,1.069013379E-3,2.218330855E-3
9.086943350E-1,-1.069013379E-3,-1.069013379E-3,2.290742937E-3,2.744646136E-3
9.108494400E-1,1.374445739E-3,1.527161949E-4,-1.527161949E-4,1.391310735E-3
9.130045440E-1,1.527161949E-4,-1.069013379E-3,-1.527161949E-4,1.090611790E-3
9.151597000E-1,-2.290742937E-3,-4.734201822E-3,-1.527161949E-4,5.261510462E-3
9.173147520E-1,1.527161949E-4,2.596175298E-3,-1.527161949E-4,2.605143115E-3
9.194699080E-1,1.374445739E-3,1.374445739E-3,1.069013379E-3,2.218330855E-3
9.216250120E-1,1.527161949E-4,-1.069013379E-3,1.069013379E-3,1.519506974E-3
9.237801170E-1,-1.069013379E-3,-2.290742937E-3,1.069013379E-3,2.744646136E-3
9.259352210E-1,1.527161949E-4,-1.069013379E-3,-1.527161949E-4,1.090611790E-3
9.280903250E-1,1.527161949E-4,3.817904973E-3,-1.374445739E-3,4.060643017E-3
9.302454290E-1,-2.290742937E-3,-1.069013379E-3,1.069013379E-3,2.744646136E-3
9.324005330E-1,1.527161949E-4,-1.069013379E-3,1.069013379E-3,1.519506974E-3
9.345556370E-1,-2.290742937E-3,-7.177661173E-3,-1.527161949E-4,7.535890482E-3
9.367107420E-1,-1.069013379E-3,-4.734201822E-3,1.069013379E-3,4.969733001E-3
9.388658460E-1,1.527161949E-4,-2.290742937E-3,1.069013379E-3,2.532511608E-3
9.410209500E-1,-1.069013379E-3,-1.069013379E-3,-1.527161949E-4,1.519506974E-3
9.431760540E-1,1.527161949E-4,1.527161949E-4,-1.527161949E-4,2.645122086E-4
9.453311580E-1,-2.290742937E-3,-2.290742937E-3,-1.527161949E-4,3.243197288E-3
9.474862620E-1,1.374445739E-3,-2.290742937E-3,-1.527161949E-4,2.675803904E-3
9.496413670E-1,1.527161949E-4,-2.290742937E-3,1.069013379E-3,2.532511608E-3
9.517965230E-1,-1.069013379E-3,-3.512472380E-3,-1.527161949E-4,3.674720950E-3
9.539515750E-1,-1.069013379E-3,-1.069013379E-3,-1.527161949E-4,1.519506974E-3
9.561066790E-1,1.374445739E-3,1.374445739E-3,-1.527161949E-4,1.949749834E-3
9.582618350E-1,1.374445739E-3,-1.069013379E-3,-1.527161949E-4,1.747916740E-3
9.604169400E-1,-1.069013379E-3,-3.512472380E-3,-1.374445739E-3,3.920376629E-3
9.625720440E-1,1.527161949E-4,1.527161949E-4,-1.527161949E-4,2.645122086E-4
9.647271480E-1,-1.069013379E-3,1.527161949E-4,-1.374445739E-3,1.747916740E-3
9.668822000E-1,1.374445739E-3,2.596175298E-3,1.069013379E-3,3.126022532E-3
9.690373560E-1,1.527161949E-4,1.374445739E-3,-1.527161949E-4,1.391310735E-3
9.711924600E-1,1.527161949E-4,1.374445739E-3,-1.527161949E-4,1.391310735E-3
9.733475650E-1,1.527161949E-4,1.527161949E-4,-1.527161949E-4,2.645122086E-4
9.755026170E-1,-1.069013379E-3,1.374445739E-3,-1.527161949E-4,1.747916740E-3
9.776577730E-1,-1.069013379E-3,-1.069013379E-3,1.069013379E-3,1.851585486E-3
9.798128770E-1,1.527161949E-4,-3.512472380E-3,1.069013379E-3,3.674720950E-3
9.819679810E-1,1.527161949E-4,-2.290742937E-3,1.069013379E-3,2.532511608E-3
9.841230850E-1,-3.512472380E-3,-2.290742937E-3,1.069013379E-3,4.327557629E-3
9.862781900E-1,1.374445739E-3,1.527161949E-4,-1.527161949E-4,1.391310735E-3
9.884332940E-1,1.527161949E-4,1.527161949E-4,-1.527161949E-4,2.645122086E-4
9.905883980E-1,1.374445739E-3,-2.290742937E-3,-1.527161949E-4,2.675803904E-3
9.927435020E-1,1.527161949E-4,-1.069013379E-3,1.069013379E-3,1.519506974E-3
9.948986060E-1,1.374445739E-3,1.527161949E-4,1.069013379E-3,1.747916740E-3
9.970537100E-1,1.527161949E-4,-2.290742937E-3,-1.374445739E-3,2.675803904E-3
9.992088150E-1,1.527161949E-4,-1.069013379E-3,-1.527161949E-4,1.090611790E-3
1.001363971E0,-2.290742937E-3,-3.512472380E-3,1.069013379E-3,4.327557629E-3
1.003519023E0,1.527161949E-4,1.374445739E-3,-1.527161949E-4,1.391310735E-3
1.005674127E0,2.596175298E-3,1.374445739E-3,-1.527161949E-4,2.941521631E-3
1.007829283E0,1.374445739E-3,-2.290742937E-3,-1.527161949E-4,2.675803904E-3
1.009984335E0,1.527161949E-4,1.527161949E-4,-1.527161949E-4,2.645122086E-4
1.012139492E0,1.527161949E-4,-1.069013379E-3,1.069013379E-3,1.519506974E-3
1.014294544E0,-1.069013379E-3,1.527161949E-4,-1.527161949E-4,1.090611790E-3
1.016449648E0,1.527161949E-4,-1.069013379E-3,1.069013379E-3,1.519506974E-3
1.018604804E0,-1.069013379E-3,1.527161949E-4,-1.527161949E-4,1.090611790E-3
1.020759856E0,1.527161949E-4,-1.069013379E-3,-1.374445739E-3,1.747916740E-3
1.022915012E0,-1.069013379E-3,-2.290742937E-3,-1.527161949E-4,2.532511608E-3
1.025070065E0,1.527161949E-4,2.596175298E-3,-1.527161949E-4,2.605143115E-3
1.027227721E0,1.527161949E-4,-1.069013379E-3,-1.527161949E-4,1.090611790E-3
1.029380325E0,-2.290742937E-3,1.527161949E-4,1.069013379E-3,2.532511608E-3
1.031535429E0,1.374445739E-3,2.596175298E-3,1.069013379E-3,3.126022532E-3
1.033690533E0,1.527161949E-4,2.596175298E-3,1.069013379E-3,2.811803339E-3
1.035845637E0,-1.069013379E-3,2.596175298E-3,1.069013379E-3,3.004281176E-3
1.038000742E0,-1.069013379E-3,-1.069013379E-3,-1.527161949E-4,1.519506974E-3
1.040155846E0,1.527161949E-4,-1.069013379E-3,-1.527161949E-4,1.090611790E-3
1.042310950E0,1.527161949E-4,1.374445739E-3,-1.527161949E-4,1.391310735E-3
1.044466054E0,1.527161949E-4,-1.069013379E-3,1.069013379E-3,1.519506974E-3
1.046621158E0,1.527161949E-4,-1.069013379E-3,-1.527161949E-4,1.090611790E-3
1.048776262E0,1.527161949E-4,1.527161949E-4,-1.374445739E-3,1.391310735E-3
1.050931367E0,-1.069013379E-3,-3.512472380E-3,-1.527161949E-4,3.674720950E-3
1.053086523E0,-1.069013379E-3,2.596175298E-3,1.069013379E-3,3.004281176E-3
1.055241627E0,1.374445739E-3,1.527161949E-4,-1.527161949E-4,1.391310735E-3
1.057396731E0,-1.069013379E-3,-1.069013379E-3,-1.374445739E-3,2.043203440E-3
1.059551835E0,1.374445739E-3,5.039634649E-3,-1.374445739E-3,5.401492347E-3
1.061706940E0,1.527161949E-4,2.596175298E-3,-1.527161949E-4,2.605143115E-3
1.063862044E0,1.527161949E-4,1.374445739E-3,-1.527161949E-4,1.391310735E-3
1.066017148E0,1.527161949E-4,-1.069013379E-3,-1.527161949E-4,1.090611790E-3
1.068172252E0,1.527161949E-4,-3.512472380E-3,1.069013379E-3,3.674720950E-3
1.070327356E0,-1.069013379E-3,-2.290742937E-3,-1.527161949E-4,2.532511608E-3
1.072482460E0,1.527161949E-4,-2.290742937E-3,-1.527161949E-4,2.300901492E-3
1.074637565E0,1.374445739E-3,1.374445739E-3,-1.527161949E-4,1.949749834E-3
1.076792669E0,2.596175298E-3,1.374445739E-3,-1.527161949E-4,2.941521631E-3
1.078947773E0,1.527161949E-4,1.374445739E-3,-1.527161949E-4,1.391310735E-3
1.081102877E0,-1.069013379E-3,1.374445739E-3,-1.527161949E-4,1.747916740E-3
1.083257981E0,1.374445739E-3,6.261364091E-3,-1.527161949E-4,6.412261973E-3
1.085413137E0,-1.069013379E-3,3.817904973E-3,-1.374445739E-3,4.196223192E-3
1.087568190E0,1.527161949E-4,1.527161949E-4,1.069013379E-3,1.090611790E-3
1.089723294E0,1.527161949E-4,2.596175298E-3,-1.374445739E-3,2.941521631E-3
1.091878398E0,1.527161949E-4,1.374445739E-3,-1.527161949E-4,1.391310735E-3
1.094033502E0,1.527161949E-4,-1.069013379E-3,-1.527161949E-4,1.090611790E-3
1.096188606E0,1.374445739E-3,1.374445739E-3,-1.527161949E-4,1.949749834E-3
1.098343710E0,1.374445739E-3,1.374445739E-3,-1.527161949E-4,1.949749834E-3
1.100498867E0,-1.069013379E-3,1.527161949E-4,-1.527161949E-4,1.090611790E-3
1.102653971E0,1.527161949E-4,2.596175298E-3,-1.527161949E-4,2.605143115E-3
1.104809023E0,1.527161949E-4,-1.069013379E-3,-1.527161949E-4,1.090611790E-3
1.106964179E0,1.527161949E-4,1.374445739E-3,-1.527161949E-4,1.391310735E-3
1.109119283E0,-1.069013379E-3,-1.069013379E-3,-1.527161949E-4,1.519506974E-3
1.111274387E0,1.527161949E-4,1.374445739E-3,-1.527161949E-4,1.391310735E-3
1.113429492E0,1.527161949E-4,-1.069013379E-3,-1.527161949E-4,1.090611790E-3
1.115584596E0,-2.290742937E-3,1.527161949E-4,-1.527161949E-4,2.300901492E-3
1.117739700E0,2.596175298E-3,2.596175298E-3,1.069013379E-3,3.824008625E-3
1.119894804E0,-1.069013379E-3,1.527161949E-4,1.069013379E-3,1.519506974E-3
1.122049908E0,-2.290742937E-3,1.527161949E-4,1.069013379E-3,2.532511608E-3
1.124205012E0,1.374445739E-3,2.596175298E-3,-1.527161949E-4,2.941521631E-3
1.126360117E0,2.596175298E-3,1.374445739E-3,1.069013379E-3,3.126022532E-3
1.128515221E0,-1.069013379E-3,1.374445739E-3,1.069013379E-3,2.043203440E-3
1.130670325E0,-1.069013379E-3,1.374445739E-3,-1.374445739E-3,2.218330855E-3
1.132825429E0,1.527161949E-4,-3.512472380E-3,-1.527161949E-4,3.519105951E-3
1.134980533E0,-2.290742937E-3,-1.069013379E-3,-1.527161949E-4,2.532511608E-3
1.137135637E0,1.527161949E-4,1.527161949E-4,-1.527161949E-4,2.645122086E-4
1.139290742E0,-1.069013379E-3,1.374445739E-3,1.069013379E-3,2.043203440E-3
1.141445846E0,-1.069013379E-3,-1.069013379E-3,-1.527161949E-4,1.519506974E-3
1.143600950E0,1.374445739E-3,1.527161949E-4,-1.527161949E-4,1.391310735E-3
1.145756054E0,1.527161949E-4,1.374445739E-3,-1.527161949E-4,1.391310735E-3
1.147911210E0,1.374445739E-3,1.527161949E-4,-1.527161949E-4,1.391310735E-3
1.150066262E0,-1.069013379E-3,1.374445739E-3,-1.374445739E-3,2.218330855E-3
1.152221367E0,-2.290742937E-3,-1.069013379E-3,-1.527161949E-4,2.532511608E-3
1.154376523E0,1.374445739E-3,1.374445739E-3,-1.527161949E-4,1.949749834E-3
1.156531575E0,-1.069013379E-3,-1.069013379E-3,1.069013379E-3,1.851585486E-3
1.158686731E0,-1.069013379E-3,1.527161949E-4,-1.374445739E-3,1.747916740E-3
1.160841835E0,-1.069013379E-3,2.596175298E-3,-1.527161949E-4,2.811803339E-3
1.162996940E0,1.527161949E-4,1.527161949E-4,-1.374445739E-3,1.391310735E-3
1.165152044E0,1.374445739E-3,1.374445739E-3,-1.527161949E-4,1.949749834E-3
1.167307148E0,-1.069013379E-3,-3.512472380E-3,-1.374445739E-3,3.920376629E-3
1.169462252E0,1.527161949E-4,1.374445739E-3,-1.527161949E-4,1.391310735E-3
1.171617356E0,1.527161949E-4,2.596175298E-3,-1.527161949E-4,2.605143115E-3
1.173772460E0,-1.069013379E-3,1.374445739E-3,-1.527161949E-4,1.747916740E-3
1.175927565E0,1.527161949E-4,3.817904973E-3,1.069013379E-3,3.967683232E-3
1.178082669E0,1.527161949E-4,1.374445739E-3,-1.374445739E-3,1.949749834E-3
1.180237773E0,-1.069013379E-3,2.596175298E-3,1.069013379E-3,3.004281176E-3
1.182392877E0,-2.290742937E-3,1.527161949E-4,-1.374445739E-3,2.675803904E-3
1.184547981E0,1.527161949E-4,1.374445739E-3,-1.374445739E-3,1.949749834E-3
1.186703085E0,-1.069013379E-3,1.374445739E-3,-1.527161949E-4,1.747916740E-3
1.188858190E0,-1.069013379E-3,1.527161949E-4,-1.527161949E-4,1.090611790E-3
1.191013294E0,-2.290742937E-3,-1.069013379E-3,1.069013379E-3,2.744646136E-3
1.193168450E0,-2.290742937E-3,-5.955931731E-3,-1.527161949E-4,6.383098638E-3
1.195323554E0,1.374445739E-3,1.374445739E-3,-1.374445739E-3,2.380609853E-3
1.197478606E0,-2.290742937E-3,-2.290742937E-3,1.069013379E-3,3.411421407E-3
1.199633710E0,1.527161949E-4,1.527161949E-4,-1.527161949E-4,2.645122086E-4
1.201788815E0,1.527161949E-4,1.374445739E-3,-1.527161949E-4,1.391310735E-3
1.203943971E0,1.374445739E-3,2.596175298E-3,-1.527161949E-4,2.941521631E-3
1.206099075E0,1.374445739E-3,3.817904973E-3,-1.527161949E-4,4.060643017E-3
1.208254179E0,-1.069013379E-3,1.374445739E-3,1.069013379E-3,2.043203440E-3
1.210409283E0,1.374445739E-3,3.817904973E-3,-1.374445739E-3,4.284226951E-3
1.212564387E0,1.527161949E-4,1.374445739E-3,-1.374445739E-3,1.949749834E-3
1.214719440E0,2.596175298E-3,2.596175298E-3,-1.527161949E-4,3.674721022E-3
1.216874596E0,1.527161949E-4,-1.069013379E-3,-1.374445739E-3,1.747916740E-3
1.219029700E0,-1.069013379E-3,1.527161949E-4,1.069013379E-3,1.519506974E-3
1.221184804E0,-1.069013379E-3,1.374445739E-3,1.069013379E-3,2.043203440E-3
1.223339908E0,-1.069013379E-3,1.527161949E-4,-1.527161949E-4,1.090611790E-3
1.225495012E0,1.374445739E-3,1.374445739E-3,-1.527161949E-4,1.949749834E-3
1.227650117E0,1.527161949E-4,2.596175298E-3,-1.527161949E-4,2.605143115E-3
1.229805221E0,1.374445739E-3,1.374445739E-3,-1.527161949E-4,1.949749834E-3
1.231960325E0,1.527161949E-4,1.374445739E-3,-1.374445739E-3,1.949749834E-3
1.234115429E0,1.527161949E-4,5.039634649E-3,-1.527161949E-4,5.044260289E-3
1.236270533E0,-1.069013379E-3,1.527161949E-4,-1.527161949E-4,1.090611790E-3
1.238425637E0,1.527161949E-4,2.596175298E-3,-1.527161949E-4,2.605143115E-3
1.240580794E0,-1.069013379E-3,1.527161949E-4,-1.527161949E-4,1.090611790E-3
1.242735846E0,-1.069013379E-3,-2.290742937E-3,1.069013379E-3,2.744646136E-3
1.244890950E0,-1.069013379E-3,-1.069013379E-3,-1.374445739E-3,2.043203440E-3
1.247046106E0,1.527161949E-4,-1.069013379E-3,-1.527161949E-4,1.090611790E-3
1.249201158E0,-1.069013379E-3,2.596175298E-3,-1.527161949E-4,2.811803339E-3
1.251356262E0,-1.069013379E-3,1.374445739E-3,-1.527161949E-4,1.747916740E-3
1.253511367E0,1.527161949E-4,2.596175298E-3,-1.527161949E-4,2.605143115E-3
1.255666523E0,1.527161949E-4,3.817904973E-3,-1.527161949E-4,3.824008742E-3
1.257821575E0,1.527161949E-4,-1.069013379E-3,-1.527161949E-4,1.090611790E-3
1.259976731E0,-1.069013379E-3,2.596175298E-3,-1.527161949E-4,2.811803339E-3
1.262131783E0,1.527161949E-4,2.596175298E-3,-1.527161949E-4,2.605143115E-3
1.264286940E0,1.374445739E-3,2.596175298E-3,-1.527161949E-4,2.941521631E-3
1.266442044E0,-1.069013379E-3,1.374445739E-3,-1.527161949E-4,1.747916740E-3
1.268597148E0,-1.069013379E-3,3.817904973E-3,1.069013379E-3,4.106333838E-3
1.270752252E0,1.374445739E-3,1.527161949E-4,-1.527161949E-4,1.391310735E-3
1.272907356E0,1.527161949E-4,1.374445739E-3,-1.527161949E-4,1.391310735E-3
1.275062460E0,1.527161949E-4,1.527161949E-4,1.069013379E-3,1.090611790E-3
1.277217565E0,-2.290742937E-3,-2.290742937E-3,1.069013379E-3,3.411421407E-3
1.279372669E0,1.527161949E-4,-1.069013379E-3,-1.527161949E-4,1.090611790E-3
1.281527773E0,1.527161949E-4,2.596175298E-3,1.069013379E-3,2.811803339E-3
1.283682877E0,2.596175298E-3,5.039634649E-3,1.069013379E-3,5.768954253E-3
1.285837981E0,-1.069013379E-3,1.527161949E-4,-1.527161949E-4,1.090611790E-3
1.287993085E0,-1.069013379E-3,-1.069013379E-3,2.290742937E-3,2.744646136E-3
1.290148190E0,1.527161949E-4,1.527161949E-4,1.069013379E-3,1.090611790E-3
1.292303294E0,-1.069013379E-3,1.374445739E-3,-1.527161949E-4,1.747916740E-3
1.294458398E0,1.527161949E-4,-1.069013379E-3,1.069013379E-3,1.519506974E-3
1.296613502E0,1.374445739E-3,2.596175298E-3,-1.527161949E-4,2.941521631E-3
1.298768606E0,-1.069013379E-3,1.374445739E-3,-1.374445739E-3,2.218330855E-3
1.300923762E0,1.527161949E-4,-3.512472380E-3,-1.527161949E-4,3.519105951E-3
1.303078867E0,2.596175298E-3,1.374445739E-3,-1.527161949E-4,2.941521631E-3
1.305233971E0,1.527161949E-4,2.596175298E-3,-1.527161949E-4,2.605143115E-3
1.307389075E0,1.527161949E-4,1.527161949E-4,-1.527161949E-4,2.645122086E-4
1.309544179E0,1.527161949E-4,2.596175298E-3,-1.527161949E-4,2.605143115E-3
1.311699283E0,1.527161949E-4,1.527161949E-4,-1.527161949E-4,2.645122086E-4
1.313854387E0,1.527161949E-4,1.374445739E-3,1.069013379E-3,1.747916740E-3
1.316009492E0,1.527161949E-4,1.527161949E-4,-1.527161949E-4,2.645122086E-4
1.318164596E0,2.596175298E-3,2.596175298E-3,-1.527161949E-4,3.674721022E-3
1.320319700E0,1.374445739E-3,1.527161949E-4,-1.527161949E-4,1.391310735E-3
1.322474804E0,-1.069013379E-3,1.527161949E-4,-1.527161949E-4,1.090611790E-3
1.324629908E0,1.527161949E-4,-4.734201822E-3,-1.527161949E-4,4.739125591E-3
1.326785012E0,-1.069013379E-3,2.596175298E-3,-1.527161949E-4,2.811803339E-3
1.328940117E0,1.374445739E-3,1.527161949E-4,-1.527161949E-4,1.391310735E-3
1.331095221E0,1.527161949E-4,1.374445739E-3,-1.527161949E-4,1.391310735E-3
1.333250325E0,2.596175298E-3,2.596175298E-3,-1.527161949E-4,3.674721022E-3
1.335405429E0,2.596175298E-3,2.596175298E-3,-1.527161949E-4,3.674721022E-3
1.337560533E0,2.596175298E-3,2.596175298E-3,-1.527161949E-4,3.674721022E-3
1.339715637E0,1.374445739E-3,2.596175298E-3,-1.374445739E-3,3.243197243E-3
1.341870742E0,2.596175298E-3,2.596175298E-3,-1.374445739E-3,3.920376697E-3
1.344025846E0,-1.069013379E-3,1.374445739E-3,-1.374445739E-3,2.218330855E-3
1.346181002E0,1.527161949E-4,2.596175298E-3,-1.527161949E-4,2.605143115E-3
1.348336054E0,1.527161949E-4,1.527161949E-4,-1.527161949E-4,2.645122086E-4
1.350491210E0,1.374445739E-3,3.817904973E-3,1.069013379E-3,4.196223192E-3
1.352646262E0,1.527161949E-4,1.374445739E-3,-1.527161949E-4,1.391310735E-3
1.354801419E0,1.527161949E-4,3.817904973E-3,1.069013379E-3,3.967683232E-3
1.356956523E0,-1.069013379E-3,1.374445739E-3,-1.527161949E-4,1.747916740E-3
1.359111575E0,-1.069013379E-3,3.817904973E-3,-1.374445739E-3,4.196223192E-3
1.361266731E0,-1.069013379E-3,1.527161949E-4,-1.527161949E-4,1.090611790E-3
1.363421835E0,1.374445739E-3,1.527161949E-4,-1.374445739E-3,1.949749834E-3
1.365576940E0,1.527161949E-4,2.596175298E-3,-1.374445739E-3,2.941521631E-3
1.367732044E0,1.527161949E-4,-1.069013379E-3,-1.527161949E-4,1.090611790E-3
1.369887148E0,2.596175298E-3,3.817904973E-3,-1.527161949E-4,4.619507203E-3
1.372042252E0,1.527161949E-4,1.527161949E-4,-1.527161949E-4,2.645122086E-4
1.374197356E0,1.374445739E-3,-1.069013379E-3,-1.527161949E-4,1.747916740E-3
1.376352460E0,1.527161949E-4,1.527161949E-4,-1.527161949E-4,2.645122086E-4
1.378507565E0,1.527161949E-4,-1.069013379E-3,-1.527161949E-4,1.090611790E-3
1.380662669E0,1.374445739E-3,2.596175298E-3,1.069013379E-3,3.126022532E-3
1.382817773E0,-1.069013379E-3,-1.069013379E-3,1.069013379E-3,1.851585486E-3
1.384972877E0,1.374445739E-3,2.596175298E-3,-1.527161949E-4,2.941521631E-3
1.387127981E0,1.527161949E-4,-3.512472380E-3,-1.527161949E-4,3.519105951E-3
1.389283085E0,-1.069013379E-3,1.527161949E-4,1.069013379E-3,1.519506974E-3
1.391438190E0,-1.069013379E-3,6.261364091E-3,-1.374445739E-3,6.498966916E-3
1.393593294E0,-1.069013379E-3,-3.512472380E-3,-1.527161949E-4,3.674720950E-3
1.395748398E0,-1.069013379E-3,-1.069013379E-3,-1.527161949E-4,1.519506974E-3
1.397903502E0,1.527161949E-4,1.374445739E-3,1.069013379E-3,1.747916740E-3
1.400058606E0,-1.069013379E-3,-2.290742937E-3,-1.527161949E-4,2.532511608E-3
1.402213710E0,1.374445739E-3,1.374445739E-3,-1.527161949E-4,1.949749834E-3
1.404368815E0,2.596175298E-3,1.374445739E-3,-1.527161949E-4,2.941521631E-3
1.406523971E0,-1.069013379E-3,3.817904973E-3,-1.527161949E-4,3.967683232E-3
1.408679075E0,1.527161949E-4,1.374445739E-3,-1.527161949E-4,1.391310735E-3
1.410834127E0,1.527161949E-4,1.374445739E-3,1.069013379E-3,1.747916740E-3
1.412989283E0,2.596175298E-3,2.596175298E-3,1.069013379E-3,3.824008625E-3
1.415144387E0,2.596175298E-3,-1.069013379E-3,-1.527161949E-4,2.811803339E-3
1.417299440E0,-1.069013379E-3,-1.069013379E-3,-1.527161949E-4,1.519506974E-3
1.419454596E0,-1.069013379E-3,1.374445739E-3,-1.527161949E-4,1.747916740E-3
1.421609700E0,1.527161949E-4,1.374445739E-3,1.069013379E-3,1.747916740E-3
1.423764752E0,-1.069013379E-3,-2.290742937E-3,1.069013379E-3,2.744646136E-3
1.425919908E0,1.527161949E-4,1.527161949E-4,-1.527161949E-4,2.645122086E-4
1.428075012E0,1.527161949E-4,1.527161949E-4,1.069013379E-3,1.090611790E-3
1.430230117E0,-1.069013379E-3,-2.290742937E-3,-1.527161949E-4,2.532511608E-3
1.432385221E0,-1.069013379E-3,1.374445739E-3,-1.527161949E-4,1.747916740E-3
1.434540325E0,-1.069013379E-3,-2.290742937E-3,-1.527161949E-4,2.532511608E-3
1.436695429E0,-2.290742937E-3,-1.069013379E-3,-1.527161949E-4,2.532511608E-3
1.438850533E0,1.527161949E-4,-1.069013379E-3,-1.527161949E-4,1.090611790E-3
1.441005637E0,-1.069013379E-3,1.527161949E-4,-1.527161949E-4,1.090611790E-3
1.443160742E0,-1.069013379E-3,1.527161949E-4,-1.527161949E-4,1.090611790E-3
1.445315846E0,-1.069013379E-3,1.527161949E-4,1.069013379E-3,1.519506974E-3
1.447470950E0,1.527161949E-4,-1.069013379E-3,-1.527161949E-4,1.090611790E-3
1.449626054E0,-1.069013379E-3,-1.069013379E-3,-1.527161949E-4,1.519506974E-3
1.451781158E0,1.527161949E-4,-2.290742937E-3,-1.374445739E-3,2.675803904E-3
1.453936262E0,1.527161949E-4,2.596175298E-3,-1.527161949E-4,2.605143115E-3
1.456091367E0,1.527161949E-4,-1.069013379E-3,-1.527161949E-4,1.090611790E-3
1.458246471E0,1.527161949E-4,1.374445739E-3,-1.527161949E-4,1.391310735E-3
1.460401575E0,-1.069013379E-3,1.374445739E-3,-1.527161949E-4,1.747916740E-3
1.462556679E0,1.527161949E-4,1.374445739E-3,-1.527161949E-4,1.391310735E-3
1.464711835E0,-1.069013379E-3,-1.069013379E-3,-1.527161949E-4,1.519506974E-3
1.466866887E0,-2.290742937E-3,-3.512472380E-3,-1.527161949E-4,4.196223023E-3
1.469022044E0,1.527161949E-4,-1.069013379E-3,-1.374445739E-3,1.747916740E-3
1.471177148E0,-1.069013379E-3,-1.069013379E-3,-1.527161949E-4,1.519506974E-3
1.473332200E0,-2.290742937E-3,1.527161949E-4,1.069013379E-3,2.532511608E-3
1.475487356E0,1.527161949E-4,-2.290742937E-3,1.069013379E-3,2.532511608E-3
1.477642460E0,-1.069013379E-3,-1.069013379E-3,-1.527161949E-4,1.519506974E-3
1.479797565E0,-1.069013379E-3,1.374445739E-3,-1.527161949E-4,1.747916740E-3
1.481952669E0,1.374445739E-3,1.374445739E-3,-1.527161949E-4,1.949749834E-3
1.484107773E0,1.527161949E-4,5.039634649E-3,-1.527161949E-4,5.044260289E-3
1.486262877E0,1.527161949E-4,-1.069013379E-3,-1.527161949E-4,1.090611790E-3
1.488417981E0,1.527161949E-4,1.527161949E-4,-1.527161949E-4,2.645122086E-4
1.490573085E0,1.527161949E-4,-1.069013379E-3,-1.527161949E-4,1.090611790E-3
1.492728190E0,1.374445739E-3,1.527161949E-4,-1.527161949E-4,1.391310735E-3
1.494883294E0,1.527161949E-4,-1.069013379E-3,1.069013379E-3,1.519506974E-3
1.497038398E0,1.374445739E-3,-1.069013379E-3,1.069013379E-3,2.043203440E-3
1.499193502E0,1.527161949E-4,-2.290742937E-3,-1.527161949E-4,2.300901492E-3
1.501348606E0,-2.290742937E-3,1.527161949E-4,1.069013379E-3,2.532511608E-3
1.503503710E0,-1.069013379E-3,2.596175298E-3,-1.527161949E-4,2.811803339E-3
1.505658815E0,1.527161949E-4,1.527161949E-4,-1.527161949E-4,2.645122086E-4
1.507813919E0,-1.069013379E-3,1.527161949E-4,1.069013379E-3,1.519506974E-3
1.509969075E0,1.527161949E-4,3.817904973E-3,-1.527161949E-4,3.824008742E-3
1.512124127E0,1.527161949E-4,-1.069013379E-3,1.069013379E-3,1.519506974E-3
1.514279231E0,-1.069013379E-3,-1.069013379E-3,1.069013379E-3,1.851585486E-3
1.516434335E0,-1.069013379E-3,1.527161949E-4,-1.527161949E-4,1.090611790E-3
1.518589440E0,-1.069013379E-3,2.596175298E-3,-1.527161949E-4,2.811803339E-3
1.520744544E0,-2.290742937E-3,-3.512472380E-3,-1.527161949E-4,4.196223023E-3
1.522899648E0,1.527161949E-4,1.527161949E-4,-1.527161949E-4,2.645122086E-4
1.525054804E0,-1.069013379E-3,1.374445739E-3,-1.374445739E-3,2.218330855E-3
1.527209856E0,1.527161949E-4,1.527161949E-4,-1.374445739E-3,1.391310735E-3
1.529365012E0,-1.069013379E-3,-1.069013379E-3,1.069013379E-3,1.851585486E-3
1.531520117E0,1.374445739E-3,1.374445739E-3,-1.527161949E-4,1.949749834E-3
1.533675221E0,1.374445739E-3,1.374445739E-3,-1.374445739E-3,2.380609853E-3
1.535830325E0,1.527161949E-4,-2.290742937E-3,-1.374445739E-3,2.675803904E-3
1.537985429E0,1.527161949E-4,1.527161949E-4,-1.527161949E-4,2.645122086E-4
1.540140533E0,1.374445739E-3,3.817904973E-3,-1.527161949E-4,4.060643017E-3
1.542295637E0,-1.069013379E-3,-1.069013379E-3,-1.527161949E-4,1.519506974E-3
1.544450742E0,1.527161949E-4,2.596175298E-3,-1.527161949E-4,2.605143115E-3
1.546605846E0,1.527161949E-4,-1.069013379E-3,-1.527161949E-4,1.090611790E-3
1.548760950E0,1.527161949E-4,1.374445739E-3,-1.374445739E-3,1.949749834E-3
1.550916054E0,1.527161949E-4,1.374445739E-3,-1.527161949E-4,1.391310735E-3
1.553071158E0,1.527161949E-4,-1.069013379E-3,-1.527161949E-4,1.090611790E-3
1.555226262E0,1.527161949E-4,1.527161949E-4,-1.527161949E-4,2.645122086E-4
1.557381367E0,-1.069013379E-3,-3.512472380E-3,-1.527161949E-4,3.674720950E-3
1.559536471E0,1.527161949E-4,-2.290742937E-3,-1.527161949E-4,2.300901492E-3
1.561691575E0,1.527161949E-4,1.527161949E-4,1.069013379E-3,1.090611790E-3
1.563846679E0,1.527161949E-4,2.596175298E-3,-1.374445739E-3,2.941521631E-3
1.566001783E0,1.374445739E-3,1.527161949E-4,-1.527161949E-4,1.391310735E-3
1.568156887E0,1.527161949E-4,1.374445739E-3,-1.527161949E-4,1.391310735E-3
1.570311992E0,1.527161949E-4,-1.069013379E-3,-1.527161949E-4,1.090611790E-3
1.572467148E0,1.527161949E-4,-4.734201822E-3,-1.527161949E-4,4.739125591E-3
1.574622252E0,-1.069013379E-3,-2.290742937E-3,-1.527161949E-4,2.532511608E-3
1.576777304E0,1.527161949E-4,1.527161949E-4,-1.374445739E-3,1.391310735E-3
1.578932408E0,1.527161949E-4,1.374445739E-3,-1.527161949E-4,1.391310735E-3
1.581087565E0,1.527161949E-4,-2.290742937E-3,1.069013379E-3,2.532511608E-3
1.583242617E0,-1.069013379E-3,-3.512472380E-3,-1.527161949E-4,3.674720950E-3
1.585397721E0,1.527161949E-4,-1.069013379E-3,-1.527161949E-4,1.090611790E-3
1.587552877E0,-1.069013379E-3,-2.290742937E-3,-1.527161949E-4,2.532511608E-3
1.589707981E0,1.527161949E-4,-4.734201822E-3,1.069013379E-3,4.855798465E-3
1.591863085E0,2.596175298E-3,1.374445739E-3,-1.527161949E-4,2.941521631E-3
1.594018190E0,2.596175298E-3,5.039634649E-3,-1.527161949E-4,5.671099171E-3
1.596173294E0,-1.069013379E-3,1.527161949E-4,-1.527161949E-4,1.090611790E-3
1.598328398E0,-1.069013379E-3,-1.069013379E-3,1.069013379E-3,1.851585486E-3
1.600483502E0,-1.069013379E-3,-2.290742937E-3,-1.374445739E-3,2.877393595E-3
1.602638606E0,1.374445739E-3,-1.069013379E-3,-1.527161949E-4,1.747916740E-3
1.604793710E0,1.527161949E-4,1.527161949E-4,1.069013379E-3,1.090611790E-3
1.606948815E0,1.374445739E-3,2.596175298E-3,1.069013379E-3,3.126022532E-3
1.609103919E0,1.527161949E-4,-1.069013379E-3,-1.374445739E-3,1.747916740E-3
1.611259023E0,-1.069013379E-3,-3.512472380E-3,-1.527161949E-4,3.674720950E-3
1.613414127E0,1.527161949E-4,-1.069013379E-3,-1.527161949E-4,1.090611790E-3
1.615569231E0,1.374445739E-3,-1.069013379E-3,-1.527161949E-4,1.747916740E-3
1.617724335E0,-1.069013379E-3,-4.734201822E-3,-1.527161949E-4,4.855798465E-3
1.619879440E0,-1.069013379E-3,1.374445739E-3,-1.527161949E-4,1.747916740E-3
1.622034544E0,1.374445739E-3,2.596175298E-3,-1.374445739E-3,3.243197243E-3
1.624189648E0,-1.069013379E-3,-1.069013379E-3,1.069013379E-3,1.851585486E-3
1.626344752E0,1.374445739E-3,-1.069013379E-3,-2.596175298E-3,3.126022532E-3
1.628499856E0,-1.069013379E-3,-2.290742937E-3,-1.374445739E-3,2.877393595E-3
1.630654960E0,1.527161949E-4,1.527161949E-4,-1.527161949E-4,2.645122086E-4
1.632810065E0,2.596175298E-3,2.596175298E-3,-1.527161949E-4,3.674721022E-3
1.634965169E0,1.527161949E-4,-3.512472380E-3,1.069013379E-3,3.674720950E-3
1.637120273E0,1.374445739E-3,-2.290742937E-3,-1.527161949E-4,2.675803904E-3
1.639275377E0,-1.069013379E-3,-1.069013379E-3,1.069013379E-3,1.851585486E-3
1.641430481E0,1.527161949E-4,1.374445739E-3,-1.527161949E-4,1.391310735E-3
1.643585585E0,2.596175298E-3,3.817904973E-3,-1.527161949E-4,4.619507203E-3
1.645740690E0,1.374445739E-3,1.527161949E-4,-1.527161949E-4,1.391310735E-3
1.647895794E0,1.527161949E-4,-2.290742937E-3,-1.527161949E-4,2.300901492E-3
1.650050950E0,1.374445739E-3,1.527161949E-4,1.069013379E-3,1.747916740E-3
1.652206054E0,1.527161949E-4,-2.290742937E-3,-1.527161949E-4,2.300901492E-3
1.654361106E0,1.527161949E-4,1.527161949E-4,1.069013379E-3,1.090611790E-3
1.656516210E0,1.527161949E-4,2.596175298E-3,1.069013379E-3,2.811803339E-3
1.658671367E0,1.527161949E-4,1.374445739E-3,1.069013379E-3,1.747916740E-3
1.660826471E0,1.374445739E-3,-1.069013379E-3,-1.527161949E-4,1.747916740E-3
1.662981575E0,1.527161949E-4,3.817904973E-3,1.069013379E-3,3.967683232E-3
1.665136679E0,1.527161949E-4,1.527161949E-4,-1.527161949E-4,2.645122086E-4
1.667291783E0,-1.069013379E-3,-2.290742937E-3,-1.374445739E-3,2.877393595E-3
1.669446887E0,-1.069013379E-3,-1.069013379E-3,-1.527161949E-4,1.519506974E-3
1.671601992E0,-1.069013379E-3,1.527161949E-4,-1.527161949E-4,1.090611790E-3
1.673757096E0,1.527161949E-4,1.374445739E-3,-1.527161949E-4,1.391310735E-3
1.675912200E0,1.374445739E-3,1.374445739E-3,1.069013379E-3,2.218330855E-3
1.678067304E0,-1.069013379E-3,1.374445739E-3,-1.527161949E-4,1.747916740E-3
1.680222408E0,1.374445739E-3,-1.069013379E-3,-1.527161949E-4,1.747916740E-3
1.682377512E0,-2.290742937E-3,-1.069013379E-3,1.069013379E-3,2.744646136E-3
1.684532617E0,1.374445739E-3,-2.290742937E-3,-1.374445739E-3,3.004281176E-3
1.686687721E0,-1.069013379E-3,-2.290742937E-3,-1.527161949E-4,2.532511608E-3
1.688842825E0,1.527161949E-4,1.374445739E-3,-1.527161949E-4,1.391310735E-3
1.690997929E0,1.527161949E-4,1.374445739E-3,-1.527161949E-4,1.391310735E-3
1.693153033E0,1.527161949E-4,-3.512472380E-3,-1.527161949E-4,3.519105951E-3
1.695308137E0,-1.069013379E-3,-1.069013379E-3,-1.374445739E-3,2.043203440E-3
1.697463294E0,1.527161949E-4,1.527161949E-4,1.069013379E-3,1.090611790E-3
1.699618398E0,1.374445739E-3,1.374445739E-3,-1.527161949E-4,1.949749834E-3
1.701773450E0,1.374445739E-3,1.527161949E-4,-1.527161949E-4,1.391310735E-3
1.703928606E0,-1.069013379E-3,1.527161949E-4,1.069013379E-3,1.519506974E-3
1.706083710E0,-1.069013379E-3,1.374445739E-3,-1.527161949E-4,1.747916740E-3
1.708238815E0,1.527161949E-4,-1.069013379E-3,-1.527161949E-4,1.090611790E-3
1.710393919E0,2.596175298E-3,3.817904973E-3,-1.527161949E-4,4.619507203E-3
1.712549023E0,1.527161949E-4,-2.290742937E-3,-1.527161949E-4,2.300901492E-3
1.714704127E0,1.527161949E-4,-1.069013379E-3,-1.527161949E-4,1.090611790E-3
1.716859231E0,-1.069013379E-3,-3.512472380E-3,1.069013379E-3,3.824008555E-3
1.719014283E0,1.527161949E-4,1.374445739E-3,-1.527161949E-4,1.391310735E-3
1.721169440E0,2.596175298E-3,-1.069013379E-3,-1.527161949E-4,2.811803339E-3
1.723324544E0,1.527161949E-4,-1.069013379E-3,-1.527161949E-4,1.090611790E-3
1.725479648E0,1.374445739E-3,-1.069013379E-3,1.069013379E-3,2.043203440E-3
1.727634752E0,1.374445739E-3,-2.290742937E-3,1.069013379E-3,2.877393595E-3
1.729789856E0,1.374445739E-3,1.374445739E-3,-1.374445739E-3,2.380609853E-3
1.731944960E0,1.527161949E-4,-2.290742937E-3,-1.527161949E-4,2.300901492E-3
1.734100065E0,1.374445739E-3,-1.069013379E-3,-1.527161949E-4,1.747916740E-3
1.736255169E0,1.527161949E-4,1.374445739E-3,-1.527161949E-4,1.391310735E-3
1.738410273E0,-2.290742937E-3,1.527161949E-4,-1.527161949E-4,2.300901492E-3
1.740565377E0,-1.069013379E-3,-3.512472380E-3,-1.527161949E-4,3.674720950E-3
1.742720481E0,-1.069013379E-3,-2.290742937E-3,-1.527161949E-4,2.532511608E-3
1.744875585E0,1.527161949E-4,1.374445739E-3,-1.527161949E-4,1.391310735E-3
1.747030690E0,-1.069013379E-3,1.527161949E-4,-1.374445739E-3,1.747916740E-3
1.749185846E0,1.527161949E-4,-2.290742937E-3,-1.374445739E-3,2.675803904E-3
1.751340898E0,1.527161949E-4,-7.177661173E-3,-1.527161949E-4,7.180909719E-3
1.753496002E0,1.527161949E-4,-1.069013379E-3,-1.527161949E-4,1.090611790E-3
1.755651106E0,-2.290742937E-3,-7.177661173E-3,-1.527161949E-4,7.535890482E-3
1.757806210E0,1.527161949E-4,-1.069013379E-3,-1.527161949E-4,1.090611790E-3
1.759961315E0,1.374445739E-3,1.374445739E-3,1.069013379E-3,2.218330855E-3
1.762116419E0,-1.069013379E-3,-1.069013379E-3,-1.374445739E-3,2.043203440E-3
1.764271523E0,1.527161949E-4,2.596175298E-3,-1.527161949E-4,2.605143115E-3
1.766426627E0,-2.290742937E-3,1.374445739E-3,1.069013379E-3,2.877393595E-3
1.768581731E0,-1.069013379E-3,1.374445739E-3,1.069013379E-3,2.043203440E-3
1.770736887E0,1.527161949E-4,1.374445739E-3,-1.527161949E-4,1.391310735E-3
1.772891992E0,-1.069013379E-3,-2.290742937E-3,-1.374445739E-3,2.877393595E-3
1.775047096E0,1.527161949E-4,-4.734201822E-3,-1.527161949E-4,4.739125591E-3
1.777202148E0,1.374445739E-3,1.527161949E-4,-1.527161949E-4,1.391310735E-3
1.779357304E0,1.527161949E-4,-2.290742937E-3,1.069013379E-3,2.532511608E-3
1.781512408E0,1.527161949E-4,1.527161949E-4,-1.527161949E-4,2.645122086E-4
1.783667512E0,1.374445739E-3,5.039634649E-3,-1.527161949E-4,5.225929651E-3
1.785822617E0,3.817904973E-3,1.374445739E-3,-1.527161949E-4,4.060643017E-3
1.787977721E0,1.527161949E-4,2.596175298E-3,-1.527161949E-4,2.605143115E-3
1.790132825E0,1.374445739E-3,-1.069013379E-3,-1.527161949E-4,1.747916740E-3
1.792287929E0,-1.069013379E-3,-4.734201822E-3,-1.527161949E-4,4.855798465E-3
1.794443033E0,1.374445739E-3,1.527161949E-4,-1.527161949E-4,1.391310735E-3
1.796598137E0,1.374445739E-3,1.527161949E-4,-1.527161949E-4,1.391310735E-3
1.798753242E0,-1.069013379E-3,-1.069013379E-3,-1.527161949E-4,1.519506974E-3
1.800908346E0,3.817904973E-3,5.039634649E-3,-1.374445739E-3,6.470194500E-3
1.803063450E0,1.527161949E-4,-2.290742937E-3,-1.527161949E-4,2.300901492E-3
1.805218554E0,1.374445739E-3,2.596175298E-3,-1.527161949E-4,2.941521631E-3
1.807373658E0,1.374445739E-3,1.374445739E-3,-1.527161949E-4,1.949749834E-3
1.809528762E0,1.374445739E-3,1.527161949E-4,1.069013379E-3,1.747916740E-3
1.811683867E0,1.527161949E-4,1.527161949E-4,-1.374445739E-3,1.391310735E-3
1.813838971E0,1.374445739E-3,1.527161949E-4,-1.527161949E-4,1.391310735E-3
1.815994075E0,1.527161949E-4,1.527161949E-4,-1.527161949E-4,2.645122086E-4
1.818149231E0,-1.069013379E-3,-5.955931731E-3,-1.527161949E-4,6.053035158E-3
1.820304283E0,1.527161949E-4,-1.069013379E-3,-1.527161949E-4,1.090611790E-3
1.822459387E0,1.374445739E-3,1.527161949E-4,-1.527161949E-4,1.391310735E-3
1.824614544E0,1.527161949E-4,-2.290742937E-3,-1.374445739E-3,2.675803904E-3
1.826769596E0,1.527161949E-4,-1.069013379E-3,1.069013379E-3,1.519506974E-3
1.828924752E0,-1.069013379E-3,1.374445739E-3,1.069013379E-3,2.043203440E-3
1.831079804E0,1.374445739E-3,1.527161949E-4,-1.527161949E-4,1.391310735E-3
1.833234960E0,3.817904973E-3,2.596175298E-3,-1.374445739E-3,4.817221778E-3
1.835390012E0,1.527161949E-4,1.374445739E-3,-1.527161949E-4,1.391310735E-3
1.837545169E0,1.527161949E-4,-2.290742937E-3,-1.527161949E-4,2.300901492E-3
1.839700273E0,-1.069013379E-3,2.596175298E-3,1.069013379E-3,3.004281176E-3
1.841855325E0,1.527161949E-4,3.817904973E-3,-1.527161949E-4,3.824008742E-3
1.844010481E0,-1.069013379E-3,-2.290742937E-3,-1.527161949E-4,2.532511608E-3
1.846165585E0,1.527161949E-4,1.527161949E-4,1.069013379E-3,1.090611790E-3
1.848320690E0,-2.290742937E-3,1.374445739E-3,-1.374445739E-3,3.004281176E-3
1.850475742E0,1.527161949E-4,-4.734201822E-3,1.069013379E-3,4.855798465E-3
1.852630898E0,-1.069013379E-3,-1.069013379E-3,1.069013379E-3,1.851585486E-3
1.854786002E0,-1.069013379E-3,2.596175298E-3,-1.527161949E-4,2.811803339E-3
1.856941106E0,-1.069013379E-3,-1.069013379E-3,-1.527161949E-4,1.519506974E-3
1.859096210E0,1.374445739E-3,-1.069013379E-3,-1.527161949E-4,1.747916740E-3
1.861251315E0,2.596175298E-3,3.817904973E-3,-1.527161949E-4,4.619507203E-3
1.863406419E0,-2.290742937E-3,-3.512472380E-3,-1.374445739E-3,4.412943067E-3
1.865561523E0,-1.069013379E-3,1.527161949E-4,-1.527161949E-4,1.090611790E-3
1.867716627E0,-1.069013379E-3,-3.512472380E-3,1.069013379E-3,3.824008555E-3
1.869871731E0,-1.069013379E-3,5.039634649E-3,-1.374445739E-3,5.331960998E-3
1.872026835E0,1.527161949E-4,-1.069013379E-3,1.069013379E-3,1.519506974E-3
1.874181940E0,-1.069013379E-3,1.527161949E-4,-1.374445739E-3,1.747916740E-3
1.876337044E0,1.374445739E-3,1.527161949E-4,-1.527161949E-4,1.391310735E-3
1.878492148E0,1.527161949E-4,2.596175298E-3,1.069013379E-3,2.811803339E-3
1.880647252E0,1.527161949E-4,1.527161949E-4,1.069013379E-3,1.090611790E-3
1.882802356E0,1.527161949E-4,1.374445739E-3,-1.374445739E-3,1.949749834E-3
1.884957512E0,1.374445739E-3,-1.069013379E-3,-1.527161949E-4,1.747916740E-3
1.887112617E0,1.527161949E-4,3.817904973E-3,-1.527161949E-4,3.824008742E-3
1.889267669E0,-1.069013379E-3,-2.290742937E-3,-1.527161949E-4,2.532511608E-3
1.891422773E0,1.374445739E-3,1.374445739E-3,1.069013379E-3,2.218330855E-3
1.893577877E0,2.596175298E-3,3.817904973E-3,1.069013379E-3,4.739125886E-3
1.895732981E0,1.374445739E-3,1.527161949E-4,-1.527161949E-4,1.391310735E-3
1.897888085E0,-1.069013379E-3,-2.290742937E-3,-1.527161949E-4,2.532511608E-3
1.900043190E0,-1.069013379E-3,-2.290742937E-3,-1.527161949E-4,2.532511608E-3
1.902198294E0,1.527161949E-4,-1.069013379E-3,-1.527161949E-4,1.090611790E-3
1.904353398E0,-1.069013379E-3,-3.512472380E-3,1.069013379E-3,3.824008555E-3
1.906508502E0,1.527161949E-4,1.374445739E-3,-1.527161949E-4,1.391310735E-3
1.908663658E0,-1.069013379E-3,1.527161949E-4,-1.527161949E-4,1.090611790E-3
1.910818762E0,-1.069013379E-3,-4.734201822E-3,-1.527161949E-4,4.855798465E-3
1.912973867E0,1.527161949E-4,-1.069013379E-3,-1.527161949E-4,1.090611790E-3
1.915128971E0,1.527161949E-4,-1.069013379E-3,-1.374445739E-3,1.747916740E-3
1.917284075E0,1.527161949E-4,-2.290742937E-3,-1.527161949E-4,2.300901492E-3
1.919439179E0,1.527161949E-4,1.527161949E-4,-1.374445739E-3,1.391310735E-3
1.921594283E0,-1.069013379E-3,1.527161949E-4,1.069013379E-3,1.519506974E-3
1.923749387E0,-1.069013379E-3,1.527161949E-4,-1.527161949E-4,1.090611790E-3
1.925904492E0,1.527161949E-4,-2.290742937E-3,1.069013379E-3,2.532511608E-3
1.928059596E0,1.374445739E-3,-2.290742937E-3,-1.527161949E-4,2.675803904E-3
1.930214700E0,1.527161949E-4,3.817904973E-3,-1.374445739E-3,4.060643017E-3
1.932369804E0,1.374445739E-3,1.374445739E-3,1.069013379E-3,2.218330855E-3
1.934524908E0,1.374445739E-3,2.596175298E-3,-1.527161949E-4,2.941521631E-3
1.936680012E0,-1.069013379E-3,2.596175298E-3,-1.527161949E-4,2.811803339E-3
1.938835117E0,1.527161949E-4,3.817904973E-3,-1.374445739E-3,4.060643017E-3
1.940990221E0,1.374445739E-3,1.374445739E-3,-1.527161949E-4,1.949749834E-3
1.943145325E0,2.596175298E-3,1.374445739E-3,-1.374445739E-3,3.243197243E-3
1.945300481E0,-1.069013379E-3,1.527161949E-4,-1.527161949E-4,1.090611790E-3
1.947455533E0,-2.290742937E-3,-2.290742937E-3,-1.527161949E-4,3.243197288E-3
1.949610637E0,1.527161949E-4,1.374445739E-3,-1.527161949E-4,1.391310735E-3
1.951765742E0,1.374445739E-3,2.596175298E-3,1.069013379E-3,3.126022532E-3
1.953920846E0,1.527161949E-4,1.374445739E-3,-1.527161949E-4,1.391310735E-3
1.956075950E0,-1.069013379E-3,1.527161949E-4,-1.527161949E-4,1.090611790E-3
1.958231054E0,-1.069013379E-3,2.596175298E-3,-1.527161949E-4,2.811803339E-3
1.960386210E0,-3.512472380E-3,1.374445739E-3,1.069013379E-3,3.920376629E-3
1.962541262E0,-1.069013379E-3,-1.069013379E-3,-1.527161949E-4,1.519506974E-3
1.964696367E0,-1.069013379E-3,-1.069013379E-3,-1.527161949E-4,1.519506974E-3
1.966851471E0,-3.512472380E-3,-2.290742937E-3,1.069013379E-3,4.327557629E-3
1.969006575E0,-1.069013379E-3,1.374445739E-3,1.069013379E-3,2.043203440E-3
1.971161679E0,1.527161949E-4,2.596175298E-3,-1.527161949E-4,2.605143115E-3
1.973316835E0,1.374445739E-3,2.596175298E-3,-1.527161949E-4,2.941521631E-3
1.975471940E0,1.374445739E-3,1.374445739E-3,-1.527161949E-4,1.949749834E-3
1.977627044E0,1.527161949E-4,1.374445739E-3,-1.527161949E-4,1.391310735E-3
1.979782148E0,1.527161949E-4,-3.512472380E-3,-1.527161949E-4,3.519105951E-3
1.981937252E0,1.527161949E-4,1.374445739E-3,-1.527161949E-4,1.391310735E-3
1.984092356E0,1.374445739E-3,-3.512472380E-3,1.069013379E-3,3.920376629E-3
1.986247460E0,1.527161949E-4,1.527161949E-4,-1.527161949E-4,2.645122086E-4
1.988402565E0,-1.069013379E-3,1.374445739E-3,-1.527161949E-4,1.747916740E-3
1.990557669E0,-1.069013379E-3,1.527161949E-4,-1.527161949E-4,1.090611790E-3
1.992712773E0,-1.069013379E-3,-1.069013379E-3,1.069013379E-3,1.851585486E-3
1.994867877E0,-1.069013379E-3,2.596175298E-3,-1.527161949E-4,2.811803339E-3
1.997022981E0,1.527161949E-4,1.374445739E-3,1.069013379E-3,1.747916740E-3
1.999178085E0,-1.069013379E-3,2.596175298E-3,-1.527161949E-4,2.811803339E-3
2.001333190E0,1.527161949E-4,2.596175298E-3,1.069013379E-3,2.811803339E-3
2.003488294E0,1.527161949E-4,6.261364091E-3,-1.527161949E-4,6.265087769E-3
2.005643398E0,1.374445739E-3,3.817904973E-3,-1.527161949E-4,4.060643017E-3
2.007798502E0,-1.069013379E-3,-1.069013379E-3,-1.527161949E-4,1.519506974E-3
2.009953606E0,-1.069013379E-3,1.527161949E-4,-1.374445739E-3,1.747916740E-3
2.012108710E0,-2.290742937E-3,-2.290742937E-3,-1.527161949E-4,3.243197288E-3
2.014263815E0,1.527161949E-4,2.596175298E-3,-1.527161949E-4,2.605143115E-3
2.016418919E0,-1.069013379E-3,1.527161949E-4,1.069013379E-3,1.519506974E-3
2.018574023E0,2.596175298E-3,2.596175298E-3,-1.527161949E-4,3.674721022E-3
2.020729127E0,1.527161949E-4,-1.069013379E-3,-1.374445739E-3,1.747916740E-3
2.022884231E0,1.374445739E-3,1.374445739E-3,1.069013379E-3,2.218330855E-3
2.025039335E0,-2.290742937E-3,-2.290742937E-3,-1.527161949E-4,3.243197288E-3
2.027194440E0,-1.069013379E-3,-1.069013379E-3,1.069013379E-3,1.851585486E-3
2.029349544E0,1.374445739E-3,2.596175298E-3,-1.527161949E-4,2.941521631E-3
2.031504648E0,1.527161949E-4,2.596175298E-3,-1.527161949E-4,2.605143115E-3
2.033659752E0,2.596175298E-3,5.039634649E-3,-1.527161949E-4,5.671099171E-3
2.035814856E0,1.527161949E-4,-3.512472380E-3,-1.527161949E-4,3.519105951E-3
2.037969960E0,1.527161949E-4,1.527161949E-4,-1.527161949E-4,2.645122086E-4
2.040125117E0,1.374445739E-3,2.596175298E-3,-1.527161949E-4,2.941521631E-3
2.042280221E0,-1.069013379E-3,-1.069013379E-3,1.069013379E-3,1.851585486E-3
2.044435325E0,-1.069013379E-3,-1.069013379E-3,-1.527161949E-4,1.519506974E-3
2.046590429E0,-1.069013379E-3,-1.069013379E-3,1.069013379E-3,1.851585486E-3
2.048745533E0,1.374445739E-3,1.374445739E-3,1.069013379E-3,2.218330855E-3
2.050900637E0,1.527161949E-4,2.596175298E-3,-1.527161949E-4,2.605143115E-3
2.053055742E0,-1.069013379E-3,1.527161949E-4,-1.527161949E-4,1.090611790E-3
2.055210846E0,-1.069013379E-3,2.596175298E-3,-1.527161949E-4,2.811803339E-3
2.057365950E0,-1.069013379E-3,3.817904973E-3,-1.527161949E-4,3.967683232E-3
2.059521054E0,1.527161949E-4,5.039634649E-3,-1.527161949E-4,5.044260289E-3
2.061676158E0,1.374445739E-3,2.596175298E-3,-1.374445739E-3,3.243197243E-3
2.063831262E0,-2.290742937E-3,2.596175298E-3,-1.527161949E-4,3.465681985E-3
2.065986367E0,-1.069013379E-3,-1.069013379E-3,-1.527161949E-4,1.519506974E-3
2.068141471E0,-3.512472380E-3,-4.734201822E-3,-1.374445739E-3,6.053034793E-3
2.070296575E0,1.527161949E-4,1.374445739E-3,-1.527161949E-4,1.391310735E-3
2.072451679E0,1.374445739E-3,2.596175298E-3,-1.527161949E-4,2.941521631E-3
2.074606783E0,1.374445739E-3,3.817904973E-3,1.069013379E-3,4.196223192E-3
2.076761887E0,-1.069013379E-3,-1.069013379E-3,-1.527161949E-4,1.519506974E-3
2.078916992E0,-2.290742937E-3,-1.069013379E-3,-1.527161949E-4,2.532511608E-3
2.081072096E0,-1.069013379E-3,1.527161949E-4,-1.527161949E-4,1.090611790E-3
2.083227200E0,-3.512472380E-3,-3.512472380E-3,-1.527161949E-4,4.969733059E-3
2.085382304E0,1.527161949E-4,1.374445739E-3,-1.527161949E-4,1.391310735E-3
2.087537408E0,-1.069013379E-3,1.374445739E-3,1.069013379E-3,2.043203440E-3
2.089692512E0,1.527161949E-4,1.374445739E-3,-1.527161949E-4,1.391310735E-3
2.091847617E0,1.374445739E-3,-2.290742937E-3,-1.527161949E-4,2.675803904E-3
2.094002773E0,1.527161949E-4,2.596175298E-3,-1.527161949E-4,2.605143115E-3
2.096157877E0,-1.069013379E-3,3.817904973E-3,-1.527161949E-4,3.967683232E-3
2.098312929E0,1.527161949E-4,3.817904973E-3,-1.527161949E-4,3.824008742E-3
2.100468033E0,-2.290742937E-3,-2.290742937E-3,-1.527161949E-4,3.243197288E-3
2.102623190E0,1.527161949E-4,1.374445739E-3,-1.527161949E-4,1.391310735E-3
2.104778294E0,1.527161949E-4,3.817904973E-3,1.069013379E-3,3.967683232E-3
2.106933346E0,-1.069013379E-3,-1.069013379E-3,-1.527161949E-4,1.519506974E-3
2.109088502E0,1.527161949E-4,-1.069013379E-3,-1.527161949E-4,1.090611790E-3
2.111243606E0,1.527161949E-4,-1.069013379E-3,1.069013379E-3,1.519506974E-3
2.113398710E0,-2.290742937E-3,1.527161949E-4,-1.527161949E-4,2.300901492E-3
2.115553762E0,1.527161949E-4,2.596175298E-3,-1.527161949E-4,2.605143115E-3
2.117708867E0,-1.069013379E-3,-2.290742937E-3,1.069013379E-3,2.744646136E-3
2.119864023E0,2.596175298E-3,2.596175298E-3,1.069013379E-3,3.824008625E-3
2.122019075E0,1.527161949E-4,2.596175298E-3,-1.527161949E-4,2.605143115E-3
2.124174231E0,-1.069013379E-3,2.596175298E-3,-1.374445739E-3,3.126022532E-3
2.126329335E0,1.527161949E-4,3.817904973E-3,-1.527161949E-4,3.824008742E-3
2.128484440E0,-1.069013379E-3,-1.069013379E-3,-1.527161949E-4,1.519506974E-3
2.130639544E0,1.527161949E-4,1.374445739E-3,-1.527161949E-4,1.391310735E-3
2.132794648E0,1.527161949E-4,1.527161949E-4,-1.527161949E-4,2.645122086E-4
2.134949752E0,-1.069013379E-3,-1.069013379E-3,1.069013379E-3,1.851585486E-3
2.137104856E0,1.527161949E-4,1.374445739E-3,-1.527161949E-4,1.391310735E-3
2.139259960E0,1.527161949E-4,-1.069013379E-3,-1.527161949E-4,1.090611790E-3
2.141415065E0,-1.069013379E-3,1.527161949E-4,-1.527161949E-4,1.090611790E-3
2.143570169E0,1.374445739E-3,3.817904973E-3,1.069013379E-3,4.196223192E-3
2.145725273E0,-1.069013379E-3,1.374445739E-3,-1.527161949E-4,1.747916740E-3
2.147880377E0,1.374445739E-3,2.596175298E-3,-1.527161949E-4,2.941521631E-3
2.150035481E0,1.527161949E-4,-3.512472380E-3,1.069013379E-3,3.674720950E-3
2.152190585E0,-1.069013379E-3,-1.069013379E-3,-1.527161949E-4,1.519506974E-3
2.154345690E0,1.374445739E-3,5.039634649E-3,1.069013379E-3,5.331960998E-3
2.156500794E0,-2.290742937E-3,1.527161949E-4,1.069013379E-3,2.532511608E-3
2.158655898E0,-2.290742937E-3,-3.512472380E-3,1.069013379E-3,4.327557629E-3
2.160811002E0,-2.290742937E-3,1.374445739E-3,2.290742937E-3,3.519106066E-3
2.162966106E0,-1.069013379E-3,1.374445739E-3,1.069013379E-3,2.043203440E-3
2.165121210E0,1.527161949E-4,1.527161949E-4,1.069013379E-3,1.090611790E-3
2.167276315E0,-2.290742937E-3,-4.734201822E-3,1.069013379E-3,5.366838893E-3
2.169431419E0,1.527161949E-4,2.596175298E-3,-1.527161949E-4,2.605143115E-3
2.171586523E0,1.527161949E-4,2.596175298E-3,1.069013379E-3,2.811803339E-3
2.173741679E0,-3.512472380E-3,-3.512472380E-3,1.069013379E-3,5.081113465E-3
2.175896731E0,-1.069013379E-3,3.817904973E-3,-1.527161949E-4,3.967683232E-3
2.178051835E0,-1.069013379E-3,1.527161949E-4,1.069013379E-3,1.519506974E-3
2.180206992E0,-1.069013379E-3,1.527161949E-4,-1.527161949E-4,1.090611790E-3
2.182362096E0,3.817904973E-3,-1.069013379E-3,1.069013379E-3,4.106333838E-3
2.184517200E0,-3.512472380E-3,-5.955931731E-3,-1.527161949E-4,6.916206130E-3
2.186672304E0,-1.069013379E-3,-2.290742937E-3,1.069013379E-3,2.744646136E-3
2.188827408E0,-1.069013379E-3,1.527161949E-4,1.069013379E-3,1.519506974E-3
2.190982512E0,1.527161949E-4,1.527161949E-4,-1.527161949E-4,2.645122086E-4
2.193137565E0,1.527161949E-4,1.527161949E-4,1.069013379E-3,1.090611790E-3
2.195292721E0,1.527161949E-4,-2.290742937E-3,-1.527161949E-4,2.300901492E-3
2.197447825E0,1.527161949E-4,2.596175298E-3,-1.527161949E-4,2.605143115E-3
2.199602929E0,-1.069013379E-3,-1.069013379E-3,1.069013379E-3,1.851585486E-3
2.201758033E0,-1.069013379E-3,-1.069013379E-3,2.290742937E-3,2.744646136E-3
2.203913137E0,1.527161949E-4,2.596175298E-3,1.069013379E-3,2.811803339E-3
2.206068242E0,-1.069013379E-3,-2.290742937E-3,-1.527161949E-4,2.532511608E-3
2.208223294E0,-1.069013379E-3,-1.069013379E-3,1.069013379E-3,1.851585486E-3
2.210378450E0,1.374445739E-3,5.039634649E-3,1.069013379E-3,5.331960998E-3
2.212533554E0,-1.069013379E-3,1.527161949E-4,-1.374445739E-3,1.747916740E-3
2.214688658E0,-1.069013379E-3,1.374445739E-3,1.069013379E-3,2.043203440E-3
2.216843762E0,-3.512472380E-3,-3.512472380E-3,1.069013379E-3,5.081113465E-3
2.218998867E0,-1.069013379E-3,1.527161949E-4,-1.527161949E-4,1.090611790E-3
2.221153971E0,2.596175298E-3,2.596175298E-3,1.069013379E-3,3.824008625E-3
2.223309075E0,1.374445739E-3,2.596175298E-3,1.069013379E-3,3.126022532E-3
2.225464179E0,-1.069013379E-3,1.527161949E-4,-1.527161949E-4,1.090611790E-3
2.227619283E0,1.527161949E-4,1.374445739E-3,-1.374445739E-3,1.949749834E-3
2.229774387E0,1.374445739E-3,3.817904973E-3,1.069013379E-3,4.196223192E-3
2.231929492E0,1.527161949E-4,1.374445739E-3,-1.374445739E-3,1.949749834E-3
2.234084596E0,-3.512472380E-3,-2.290742937E-3,-1.527161949E-4,4.196223023E-3
2.236239700E0,-1.069013379E-3,-1.069013379E-3,-1.527161949E-4,1.519506974E-3
2.238394804E0,1.374445739E-3,1.374445739E-3,1.069013379E-3,2.218330855E-3
2.240549908E0,-1.069013379E-3,-1.069013379E-3,1.069013379E-3,1.851585486E-3
2.242705012E0,-2.290742937E-3,1.527161949E-4,-1.527161949E-4,2.300901492E-3
2.244860117E0,1.374445739E-3,1.374445739E-3,-1.374445739E-3,2.380609853E-3
2.247015221E0,-2.290742937E-3,1.527161949E-4,1.069013379E-3,2.532511608E-3
2.249170325E0,1.527161949E-4,-1.069013379E-3,1.069013379E-3,1.519506974E-3
2.251325429E0,1.527161949E-4,-1.069013379E-3,-1.527161949E-4,1.090611790E-3
2.253480533E0,1.527161949E-4,3.817904973E-3,-1.527161949E-4,3.824008742E-3
2.255635690E0,-1.069013379E-3,1.374445739E-3,-1.527161949E-4,1.747916740E-3
2.257790742E0,1.527161949E-4,1.527161949E-4,-1.527161949E-4,2.645122086E-4
2.259945898E0,1.527161949E-4,1.374445739E-3,-1.527161949E-4,1.391310735E-3
2.262100950E0,-1.069013379E-3,-1.069013379E-3,-1.527161949E-4,1.519506974E-3
2.264256054E0,1.527161949E-4,-2.290742937E-3,1.069013379E-3,2.532511608E-3
2.266411158E0,1.527161949E-4,2.596175298E-3,-1.527161949E-4,2.605143115E-3
2.268566315E0,1.527161949E-4,5.039634649E-3,-1.527161949E-4,5.044260289E-3
2.270721367E0,1.527161949E-4,1.527161949E-4,-1.527161949E-4,2.645122086E-4
2.272876523E0,-1.069013379E-3,-1.069013379E-3,1.069013379E-3,1.851585486E-3
2.275031627E0,1.374445739E-3,1.374445739E-3,1.069013379E-3,2.218330855E-3
2.277186731E0,1.374445739E-3,1.527161949E-4,-2.596175298E-3,2.941521631E-3
2.279341835E0,1.374445739E-3,1.527161949E-4,-1.527161949E-4,1.391310735E-3
2.281496940E0,1.527161949E-4,-2.290742937E-3,-1.527161949E-4,2.300901492E-3
2.283652044E0,2.596175298E-3,6.261364091E-3,-1.527161949E-4,6.779979992E-3
2.285807148E0,1.374445739E-3,6.261364091E-3,-1.374445739E-3,6.556133194E-3
2.287962252E0,1.527161949E-4,2.596175298E-3,-1.374445739E-3,2.941521631E-3
2.290117356E0,2.596175298E-3,-1.069013379E-3,-1.527161949E-4,2.811803339E-3
2.292272460E0,-1.069013379E-3,1.527161949E-4,1.069013379E-3,1.519506974E-3
2.294427565E0,1.527161949E-4,1.374445739E-3,1.069013379E-3,1.747916740E-3
2.296582669E0,1.527161949E-4,1.374445739E-3,-1.527161949E-4,1.391310735E-3
2.298737773E0,-1.069013379E-3,-2.290742937E-3,1.069013379E-3,2.744646136E-3
2.300892877E0,-1.069013379E-3,-3.512472380E-3,-1.527161949E-4,3.674720950E-3
2.303047981E0,-1.069013379E-3,-1.069013379E-3,1.069013379E-3,1.851585486E-3
2.305203085E0,-1.069013379E-3,1.527161949E-4,-1.527161949E-4,1.090611790E-3
2.307358190E0,-1.069013379E-3,1.374445739E-3,1.069013379E-3,2.043203440E-3
2.309513294E0,1.527161949E-4,1.527161949E-4,1.069013379E-3,1.090611790E-3
2.311668398E0,1.527161949E-4,-2.290742937E-3,1.069013379E-3,2.532511608E-3
2.313823502E0,1.374445739E-3,-1.069013379E-3,-1.527161949E-4,1.747916740E-3
2.315978606E0,1.527161949E-4,-2.290742937E-3,-1.527161949E-4,2.300901492E-3
2.318133762E0,1.374445739E-3,1.527161949E-4,-1.527161949E-4,1.391310735E-3
2.320288815E0,1.527161949E-4,1.527161949E-4,-1.527161949E-4,2.645122086E-4
2.322443919E0,1.527161949E-4,-1.069013379E-3,-1.527161949E-4,1.090611790E-3
2.324599023E0,1.374445739E-3,2.596175298E-3,-1.527161949E-4,2.941521631E-3
2.326754179E0,1.527161949E-4,1.527161949E-4,-1.374445739E-3,1.391310735E-3
2.328909231E0,1.527161949E-4,3.817904973E-3,1.069013379E-3,3.967683232E-3
2.331064387E0,-1.069013379E-3,1.527161949E-4,-1.527161949E-4,1.090611790E-3
2.333219492E0,-1.069013379E-3,-3.512472380E-3,1.069013379E-3,3.824008555E-3
2.335374596E0,1.527161949E-4,-2.290742937E-3,1.069013379E-3,2.532511608E-3
2.337529700E0,1.527161949E-4,2.596175298E-3,-1.527161949E-4,2.605143115E-3
2.339684752E0,1.527161949E-4,1.374445739E-3,-1.527161949E-4,1.391310735E-3
2.341839908E0,-1.069013379E-3,-2.290742937E-3,1.069013379E-3,2.744646136E-3
2.343995012E0,2.596175298E-3,2.596175298E-3,1.069013379E-3,3.824008625E-3
2.346150117E0,1.374445739E-3,1.527161949E-4,-1.527161949E-4,1.391310735E-3
2.348305221E0,-1.069013379E-3,-1.069013379E-3,-1.527161949E-4,1.519506974E-3
2.350460273E0,1.374445739E-3,2.596175298E-3,-1.527161949E-4,2.941521631E-3
2.352615429E0,1.527161949E-4,-2.290742937E-3,-1.527161949E-4,2.300901492E-3
2.354770533E0,-3.512472380E-3,-3.512472380E-3,1.069013379E-3,5.081113465E-3
2.356925637E0,-1.069013379E-3,2.596175298E-3,-1.527161949E-4,2.811803339E-3
2.359080742E0,1.527161949E-4,1.527161949E-4,1.069013379E-3,1.090611790E-3
2.361235846E0,1.527161949E-4,-3.512472380E-3,-1.527161949E-4,3.519105951E-3
2.363390950E0,1.527161949E-4,1.374445739E-3,-1.527161949E-4,1.391310735E-3
2.365546054E0,1.527161949E-4,-2.290742937E-3,-1.527161949E-4,2.300901492E-3
2.367701158E0,1.527161949E-4,2.596175298E-3,1.069013379E-3,2.811803339E-3
2.369856262E0,-1.069013379E-3,1.374445739E-3,-1.527161949E-4,1.747916740E-3
2.372011367E0,1.374445739E-3,2.596175298E-3,-1.527161949E-4,2.941521631E-3
2.374166471E0,-3.512472380E-3,-5.955931731E-3,-1.527161949E-4,6.916206130E-3
2.376321575E0,-1.069013379E-3,-4.734201822E-3,-1.527161949E-4,4.855798465E-3
2.378476679E0,1.527161949E-4,1.374445739E-3,-1.527161949E-4,1.391310735E-3
2.380631783E0,1.374445739E-3,-1.069013379E-3,1.069013379E-3,2.043203440E-3
2.382786887E0,1.527161949E-4,1.527161949E-4,-1.374445739E-3,1.391310735E-3
2.384941992E0,1.527161949E-4,1.527161949E-4,1.069013379E-3,1.090611790E-3
2.387097096E0,2.596175298E-3,1.527161949E-4,-1.527161949E-4,2.605143115E-3
2.389252200E0,1.527161949E-4,-2.290742937E-3,-1.374445739E-3,2.675803904E-3
2.391407304E0,-2.290742937E-3,-3.512472380E-3,-1.527161949E-4,4.196223023E-3
2.393562408E0,1.374445739E-3,1.527161949E-4,-1.527161949E-4,1.391310735E-3
2.395717565E0,1.374445739E-3,-1.069013379E-3,1.069013379E-3,2.043203440E-3
2.397872617E0,1.527161949E-4,1.374445739E-3,-1.527161949E-4,1.391310735E-3
2.400027721E0,1.527161949E-4,-1.069013379E-3,-1.527161949E-4,1.090611790E-3
2.402182825E0,1.527161949E-4,-3.512472380E-3,1.069013379E-3,3.674720950E-3
2.404337929E0,-1.069013379E-3,-2.290742937E-3,1.069013379E-3,2.744646136E-3
2.406493085E0,-2.290742937E-3,1.374445739E-3,-1.527161949E-4,2.675803904E-3
2.408648137E0,-2.290742937E-3,-4.734201822E-3,1.069013379E-3,5.366838893E-3
2.410803294E0,1.374445739E-3,1.527161949E-4,-1.527161949E-4,1.391310735E-3
2.412958398E0,1.527161949E-4,-3.512472380E-3,-1.527161949E-4,3.519105951E-3
2.415113450E0,-1.069013379E-3,1.527161949E-4,-1.527161949E-4,1.090611790E-3
2.417268554E0,-2.290742937E-3,-3.512472380E-3,1.069013379E-3,4.327557629E-3
2.419423710E0,-1.069013379E-3,2.596175298E-3,-1.527161949E-4,2.811803339E-3
2.421578815E0,1.527161949E-4,-1.069013379E-3,-1.527161949E-4,1.090611790E-3
2.423733919E0,1.527161949E-4,-1.069013379E-3,-1.527161949E-4,1.090611790E-3
2.425889023E0,1.527161949E-4,1.527161949E-4,-1.527161949E-4,2.645122086E-4
2.428044075E0,-2.290742937E-3,-2.290742937E-3,1.069013379E-3,3.411421407E-3
2.430199231E0,1.527161949E-4,-1.069013379E-3,-1.527161949E-4,1.090611790E-3
2.432354335E0,1.374445739E-3,1.527161949E-4,-1.527161949E-4,1.391310735E-3
2.434509387E0,-2.290742937E-3,-3.512472380E-3,2.290742937E-3,4.778333248E-3
2.436664492E0,-1.069013379E-3,1.374445739E-3,-1.527161949E-4,1.747916740E-3
2.438819648E0,1.527161949E-4,1.527161949E-4,-1.527161949E-4,2.645122086E-4
2.440974752E0,-1.069013379E-3,-1.069013379E-3,1.069013379E-3,1.851585486E-3
2.443129856E0,-1.069013379E-3,1.374445739E-3,-1.527161949E-4,1.747916740E-3
2.445284960E0,1.527161949E-4,1.527161949E-4,-1.527161949E-4,2.645122086E-4
2.447440065E0,-1.069013379E-3,1.527161949E-4,-1.527161949E-4,1.090611790E-3
2.449595169E0,-1.069013379E-3,-1.069013379E-3,-1.527161949E-4,1.519506974E-3
2.451750273E0,1.527161949E-4,2.596175298E-3,1.069013379E-3,2.811803339E-3
2.453905377E0,1.527161949E-4,1.527161949E-4,1.069013379E-3,1.090611790E-3
2.456060481E0,-1.069013379E-3,1.527161949E-4,-1.374445739E-3,1.747916740E-3
2.458215585E0,-1.069013379E-3,-1.069013379E-3,1.069013379E-3,1.851585486E-3
2.460370690E0,1.374445739E-3,2.596175298E-3,-1.527161949E-4,2.941521631E-3
2.462525794E0,1.374445739E-3,-1.069013379E-3,-1.527161949E-4,1.747916740E-3
2.464680898E0,-3.512472380E-3,-1.069013379E-3,-1.527161949E-4,3.674720950E-3
2.466836002E0,-3.512472380E-3,-4.734201822E-3,-1.374445739E-3,6.053034793E-3
2.468991106E0,-1.069013379E-3,1.527161949E-4,-1.527161949E-4,1.090611790E-3
2.471146210E0,1.374445739E-3,1.527161949E-4,1.069013379E-3,1.747916740E-3
2.473301315E0,1.374445739E-3,1.527161949E-4,-1.527161949E-4,1.391310735E-3
2.475456419E0,1.527161949E-4,3.817904973E-3,-1.527161949E-4,3.824008742E-3
2.477611523E0,1.527161949E-4,-2.290742937E-3,-1.527161949E-4,2.300901492E-3
2.479766627E0,1.374445739E-3,1.527161949E-4,-1.527161949E-4,1.391310735E-3
2.481921731E0,1.374445739E-3,-1.069013379E-3,1.069013379E-3,2.043203440E-3
2.484076835E0,1.527161949E-4,2.596175298E-3,-1.527161949E-4,2.605143115E-3
2.486231992E0,1.374445739E-3,2.596175298E-3,1.069013379E-3,3.126022532E-3
2.488387044E0,1.374445739E-3,-1.069013379E-3,1.069013379E-3,2.043203440E-3
2.490542148E0,1.527161949E-4,1.527161949E-4,1.069013379E-3,1.090611790E-3
2.492697252E0,1.527161949E-4,2.596175298E-3,-1.527161949E-4,2.605143115E-3
2.494852408E0,1.527161949E-4,-1.069013379E-3,1.069013379E-3,1.519506974E-3
2.497007460E0,-1.069013379E-3,-2.290742937E-3,-1.527161949E-4,2.532511608E-3
2.499162617E0,-1.069013379E-3,-4.734201822E-3,1.069013379E-3,4.969733001E-3
2.501317669E0,1.374445739E-3,7.483093534E-3,-1.527161949E-4,7.609803687E-3
2.503472825E0,-1.069013379E-3,1.527161949E-4,-1.527161949E-4,1.090611790E-3
2.505627877E0,1.527161949E-4,2.596175298E-3,-1.527161949E-4,2.605143115E-3
2.507783033E0,-1.069013379E-3,-1.069013379E-3,-1.527161949E-4,1.519506974E-3
2.509938137E0,-2.290742937E-3,-2.290742937E-3,-1.527161949E-4,3.243197288E-3
2.512093242E0,1.527161949E-4,1.374445739E-3,-1.527161949E-4,1.391310735E-3
2.514248346E0,1.527161949E-4,1.374445739E-3,1.069013379E-3,1.747916740E-3
2.516403450E0,-1.069013379E-3,-2.290742937E-3,1.069013379E-3,2.744646136E-3
2.518558554E0,1.374445739E-3,1.374445739E-3,1.069013379E-3,2.218330855E-3
2.520713658E0,1.527161949E-4,-1.069013379E-3,1.069013379E-3,1.519506974E-3
2.522868762E0,-1.069013379E-3,-2.290742937E-3,-1.527161949E-4,2.532511608E-3
2.525023867E0,2.596175298E-3,3.817904973E-3,-1.527161949E-4,4.619507203E-3
2.527178971E0,1.374445739E-3,-1.069013379E-3,-1.527161949E-4,1.747916740E-3
2.529334075E0,1.527161949E-4,-3.512472380E-3,-1.527161949E-4,3.519105951E-3
2.531489179E0,-2.290742937E-3,1.374445739E-3,-1.374445739E-3,3.004281176E-3
2.533644283E0,-1.069013379E-3,-2.290742937E-3,1.069013379E-3,2.744646136E-3
2.535799387E0,-1.069013379E-3,-1.069013379E-3,1.069013379E-3,1.851585486E-3
2.537954492E0,1.527161949E-4,-1.069013379E-3,-1.527161949E-4,1.090611790E-3
2.540109596E0,-1.069013379E-3,-4.734201822E-3,-1.527161949E-4,4.855798465E-3
2.542264700E0,-1.069013379E-3,-1.069013379E-3,1.069013379E-3,1.851585486E-3
2.544419804E0,1.527161949E-4,-2.290742937E-3,1.069013379E-3,2.532511608E-3
2.546574908E0,-1.069013379E-3,-3.512472380E-3,1.069013379E-3,3.824008555E-3
2.548730012E0,1.374445739E-3,-1.069013379E-3,-1.527161949E-4,1.747916740E-3
2.550885117E0,1.527161949E-4,1.374445739E-3,-1.527161949E-4,1.391310735E-3
2.553040221E0,1.527161949E-4,1.527161949E-4,1.069013379E-3,1.090611790E-3
2.555195325E0,-1.069013379E-3,-1.069013379E-3,-1.527161949E-4,1.519506974E-3
2.557350429E0,1.374445739E-3,3.817904973E-3,-1.527161949E-4,4.060643017E-3
2.559505533E0,-1.069013379E-3,-2.290742937E-3,-1.527161949E-4,2.532511608E-3
2.561660690E0,-1.069013379E-3,1.527161949E-4,-1.527161949E-4,1.090611790E-3
2.563815742E0,1.527161949E-4,-1.069013379E-3,-1.527161949E-4,1.090611790E-3
2.565970898E0,-1.069013379E-3,-2.290742937E-3,-1.527161949E-4,2.532511608E-3
2.568125950E0,1.374445739E-3,3.817904973E-3,1.069013379E-3,4.196223192E-3
2.570281054E0,-1.069013379E-3,-2.290742937E-3,1.069013379E-3,2.744646136E-3
2.572436158E0,1.527161949E-4,2.596175298E-3,-1.527161949E-4,2.605143115E-3
2.574591315E0,-1.069013379E-3,1.527161949E-4,-1.527161949E-4,1.090611790E-3
2.576746367E0,-1.069013379E-3,-2.290742937E-3,-1.374445739E-3,2.877393595E-3
2.578901523E0,1.527161949E-4,-1.069013379E-3,-1.374445739E-3,1.747916740E-3
2.581056575E0,1.527161949E-4,-1.069013379E-3,-1.527161949E-4,1.090611790E-3
2.583211679E0,-1.069013379E-3,-3.512472380E-3,1.069013379E-3,3.824008555E-3
2.585366835E0,1.527161949E-4,1.374445739E-3,1.069013379E-3,1.747916740E-3
2.587521887E0,-1.069013379E-3,-1.069013379E-3,1.069013379E-3,1.851585486E-3
2.589677044E0,1.527161949E-4,1.527161949E-4,-1.374445739E-3,1.391310735E-3
2.591832148E0,1.374445739E-3,-2.290742937E-3,-1.527161949E-4,2.675803904E-3
2.593987252E0,1.527161949E-4,1.374445739E-3,1.069013379E-3,1.747916740E-3
2.596142356E0,-1.069013379E-3,-1.069013379E-3,1.069013379E-3,1.851585486E-3
2.598297460E0,1.374445739E-3,1.374445739E-3,1.069013379E-3,2.218330855E-3
2.600452565E0,1.374445739E-3,2.596175298E-3,-1.527161949E-4,2.941521631E-3
2.602607669E0,1.527161949E-4,1.374445739E-3,-1.527161949E-4,1.391310735E-3
2.604762773E0,1.527161949E-4,-3.512472380E-3,1.069013379E-3,3.674720950E-3
2.606917877E0,-2.290742937E-3,-1.069013379E-3,-1.527161949E-4,2.532511608E-3
2.609072981E0,-2.290742937E-3,-5.955931731E-3,1.069013379E-3,6.470194401E-3
2.611228085E0,1.527161949E-4,-1.069013379E-3,-1.374445739E-3,1.747916740E-3
2.613383190E0,1.374445739E-3,-1.069013379E-3,-1.527161949E-4,1.747916740E-3
2.615538294E0,1.527161949E-4,-1.069013379E-3,1.069013379E-3,1.519506974E-3
2.617693398E0,1.527161949E-4,-2.290742937E-3,1.069013379E-3,2.532511608E-3
2.619848502E0,1.527161949E-4,2.596175298E-3,-1.527161949E-4,2.605143115E-3
2.622003606E0,1.527161949E-4,1.374445739E-3,-1.527161949E-4,1.391310735E-3
2.624158762E0,-1.069013379E-3,-1.069013379E-3,-1.527161949E-4,1.519506974E-3
2.626313815E0,1.527161949E-4,-3.512472380E-3,1.069013379E-3,3.674720950E-3
2.628468919E0,1.527161949E-4,-1.069013379E-3,-1.527161949E-4,1.090611790E-3
2.630624023E0,-1.069013379E-3,-1.069013379E-3,-1.374445739E-3,2.043203440E-3
2.632779127E0,1.527161949E-4,1.374445739E-3,-1.374445739E-3,1.949749834E-3
2.634934231E0,1.527161949E-4,1.527161949E-4,-1.374445739E-3,1.391310735E-3
2.637089335E0,1.374445739E-3,-1.069013379E-3,-1.527161949E-4,1.747916740E-3
2.639244440E0,1.527161949E-4,1.374445739E-3,-1.527161949E-4,1.391310735E-3
2.641399544E0,1.527161949E-4,1.527161949E-4,-1.527161949E-4,2.645122086E-4
2.643554648E0,1.527161949E-4,-1.069013379E-3,1.069013379E-3,1.519506974E-3
2.645709752E0,1.527161949E-4,1.527161949E-4,1.069013379E-3,1.090611790E-3
2.647864856E0,1.374445739E-3,1.374445739E-3,-1.527161949E-4,1.949749834E-3
2.650020012E0,2.596175298E-3,6.261364091E-3,-1.527161949E-4,6.779979992E-3
2.652175117E0,1.527161949E-4,3.817904973E-3,-1.527161949E-4,3.824008742E-3
2.654330169E0,1.527161949E-4,1.527161949E-4,-1.527161949E-4,2.645122086E-4
2.656485325E0,1.527161949E-4,1.527161949E-4,-1.527161949E-4,2.645122086E-4
2.658640377E0,1.374445739E-3,3.817904973E-3,-1.527161949E-4,4.060643017E-3
2.660795481E0,1.374445739E-3,1.374445739E-3,-1.527161949E-4,1.949749834E-3
2.662950637E0,-1.069013379E-3,3.817904973E-3,-1.527161949E-4,3.967683232E-3
2.665105742E0,-2.290742937E-3,1.527161949E-4,-1.527161949E-4,2.300901492E-3
2.667260794E0,-3.512472380E-3,-7.177661173E-3,-1.374445739E-3,8.108352683E-3
2.669415898E0,1.527161949E-4,-1.069013379E-3,-1.527161949E-4,1.090611790E-3
2.671571054E0,-1.069013379E-3,-3.512472380E-3,-1.527161949E-4,3.674720950E-3
2.673726158E0,1.527161949E-4,-2.290742937E-3,-1.527161949E-4,2.300901492E-3
2.675881262E0,-1.069013379E-3,3.817904973E-3,-1.527161949E-4,3.967683232E-3
2.678036315E0,-1.069013379E-3,-1.069013379E-3,1.069013379E-3,1.851585486E-3
2.680191471E0,-1.069013379E-3,1.374445739E-3,-1.527161949E-4,1.747916740E-3
2.682346575E0,1.527161949E-4,1.374445739E-3,-1.527161949E-4,1.391310735E-3
2.684501679E0,-1.069013379E-3,-2.290742937E-3,1.069013379E-3,2.744646136E-3
2.686656783E0,1.374445739E-3,1.374445739E-3,-1.527161949E-4,1.949749834E-3
2.688811887E0,1.527161949E-4,-2.290742937E-3,2.290742937E-3,3.243197288E-3
2.690966992E0,1.374445739E-3,1.527161949E-4,-1.527161949E-4,1.391310735E-3
2.693122096E0,-1.069013379E-3,1.527161949E-4,-1.527161949E-4,1.090611790E-3
2.695277200E0,1.527161949E-4,-1.069013379E-3,1.069013379E-3,1.519506974E-3
2.697432304E0,1.374445739E-3,1.374445739E-3,1.069013379E-3,2.218330855E-3
2.699587408E0,1.374445739E-3,7.483093534E-3,-1.527161949E-4,7.609803687E-3
2.701742512E0,1.374445739E-3,1.374445739E-3,-1.374445739E-3,2.380609853E-3
2.703897617E0,-1.069013379E-3,1.527161949E-4,1.069013379E-3,1.519506974E-3
2.706052721E0,-2.290742937E-3,-4.734201822E-3,-1.527161949E-4,5.261510462E-3
2.708207825E0,1.374445739E-3,2.596175298E-3,-1.374445739E-3,3.243197243E-3
2.710362929E0,1.374445739E-3,2.596175298E-3,-1.374445739E-3,3.243197243E-3
2.712518033E0,1.374445739E-3,3.817904973E-3,-1.527161949E-4,4.060643017E-3
2.714673137E0,-1.069013379E-3,1.374445739E-3,-1.527161949E-4,1.747916740E-3
2.716828242E0,1.527161949E-4,3.817904973E-3,-1.374445739E-3,4.060643017E-3
2.718983346E0,1.374445739E-3,2.596175298E-3,-1.374445739E-3,3.243197243E-3
2.721138450E0,1.374445739E-3,2.596175298E-3,-1.374445739E-3,3.243197243E-3
2.723293606E0,1.374445739E-3,2.596175298E-3,-1.527161949E-4,2.941521631E-3
2.725448658E0,1.527161949E-4,-2.290742937E-3,-1.527161949E-4,2.300901492E-3
2.727603762E0,1.374445739E-3,-1.069013379E-3,1.069013379E-3,2.043203440E-3
2.729758919E0,-1.069013379E-3,1.374445739E-3,1.069013379E-3,2.043203440E-3
2.731913971E0,-1.069013379E-3,-1.069013379E-3,-1.527161949E-4,1.519506974E-3
2.734069075E0,-2.290742937E-3,2.596175298E-3,1.069013379E-3,3.623592001E-3
2.736224179E0,-1.069013379E-3,-1.069013379E-3,-1.527161949E-4,1.519506974E-3
2.738379283E0,-1.069013379E-3,2.596175298E-3,-1.374445739E-3,3.126022532E-3
2.740534387E0,1.527161949E-4,1.527161949E-4,-1.527161949E-4,2.645122086E-4
2.742689544E0,-1.069013379E-3,3.817904973E-3,-1.527161949E-4,3.967683232E-3
2.744844596E0,-1.069013379E-3,-1.069013379E-3,-1.527161949E-4,1.519506974E-3
2.746999700E0,1.527161949E-4,1.374445739E-3,-1.527161949E-4,1.391310735E-3
2.749154856E0,1.527161949E-4,-1.069013379E-3,-1.527161949E-4,1.090611790E-3
2.751309908E0,-1.069013379E-3,3.817904973E-3,-1.527161949E-4,3.967683232E-3
2.753465065E0,1.527161949E-4,1.374445739E-3,1.069013379E-3,1.747916740E-3
2.755620169E0,1.374445739E-3,1.527161949E-4,-1.527161949E-4,1.391310735E-3
2.757775273E0,-1.069013379E-3,-2.290742937E-3,-1.527161949E-4,2.532511608E-3
2.759930377E0,1.374445739E-3,1.527161949E-4,1.069013379E-3,1.747916740E-3
2.762085481E0,1.527161949E-4,1.527161949E-4,-1.527161949E-4,2.645122086E-4
2.764240585E0,1.374445739E-3,2.596175298E-3,1.069013379E-3,3.126022532E-3
2.766395690E0,1.527161949E-4,1.527161949E-4,1.069013379E-3,1.090611790E-3
2.768550794E0,-1.069013379E-3,-1.069013379E-3,-1.527161949E-4,1.519506974E-3
2.770705846E0,-1.069013379E-3,1.527161949E-4,1.069013379E-3,1.519506974E-3
2.772861002E0,1.374445739E-3,1.527161949E-4,-1.527161949E-4,1.391310735E-3
2.775016106E0,1.527161949E-4,2.596175298E-3,-1.527161949E-4,2.605143115E-3
2.777171210E0,1.527161949E-4,1.527161949E-4,1.069013379E-3,1.090611790E-3
2.779326315E0,1.527161949E-4,1.527161949E-4,-1.527161949E-4,2.645122086E-4
2.781481419E0,-2.290742937E-3,-1.069013379E-3,-1.527161949E-4,2.532511608E-3
2.783636523E0,-2.290742937E-3,-1.069013379E-3,-1.527161949E-4,2.532511608E-3
2.785791627E0,1.527161949E-4,1.527161949E-4,-1.527161949E-4,2.645122086E-4
2.787946731E0,-1.069013379E-3,1.527161949E-4,-1.527161949E-4,1.090611790E-3
2.790101835E0,-2.290742937E-3,-3.512472380E-3,-1.527161949E-4,4.196223023E-3
2.792256940E0,1.527161949E-4,1.527161949E-4,-1.527161949E-4,2.645122086E-4
2.794412044E0,-2.290742937E-3,-1.069013379E-3,-1.527161949E-4,2.532511608E-3
2.796567148E0,1.527161949E-4,-1.069013379E-3,-1.527161949E-4,1.090611790E-3
2.798722252E0,-1.069013379E-3,-1.069013379E-3,-1.527161949E-4,1.519506974E-3
2.800877356E0,1.374445739E-3,2.596175298E-3,1.069013379E-3,3.126022532E-3
2.803032460E0,1.374445739E-3,-1.069013379E-3,1.069013379E-3,2.043203440E-3
2.805187565E0,1.527161949E-4,-1.069013379E-3,1.069013379E-3,1.519506974E-3
2.807342669E0,-2.290742937E-3,-3.512472380E-3,-1.527161949E-4,4.196223023E-3
2.809497773E0,1.527161949E-4,-3.512472380E-3,-1.527161949E-4,3.519105951E-3
2.811652877E0,1.527161949E-4,1.374445739E-3,-1.527161949E-4,1.391310735E-3
2.813807981E0,1.527161949E-4,1.374445739E-3,-1.527161949E-4,1.391310735E-3
2.815963085E0,-1.069013379E-3,2.596175298E-3,-1.374445739E-3,3.126022532E-3
2.818118190E0,1.527161949E-4,1.527161949E-4,-1.527161949E-4,2.645122086E-4
2.820273294E0,-1.069013379E-3,1.527161949E-4,1.069013379E-3,1.519506974E-3
2.822428450E0,1.374445739E-3,2.596175298E-3,1.069013379E-3,3.126022532E-3
2.824583502E0,1.374445739E-3,1.374445739E-3,1.069013379E-3,2.218330855E-3
2.826738606E0,-1.069013379E-3,-3.512472380E-3,1.069013379E-3,3.824008555E-3
2.828893762E0,1.527161949E-4,1.527161949E-4,1.069013379E-3,1.090611790E-3
2.831048867E0,-1.069013379E-3,-2.290742937E-3,1.069013379E-3,2.744646136E-3
2.833203971E0,1.527161949E-4,3.817904973E-3,1.069013379E-3,3.967683232E-3
2.835359023E0,1.374445739E-3,2.596175298E-3,-1.527161949E-4,2.941521631E-3
2.837514127E0,1.527161949E-4,1.527161949E-4,-1.527161949E-4,2.645122086E-4
2.839669231E0,1.527161949E-4,5.039634649E-3,-1.374445739E-3,5.225929651E-3
2.841824335E0,1.527161949E-4,1.527161949E-4,-1.527161949E-4,2.645122086E-4
2.843979440E0,2.596175298E-3,6.261364091E-3,-1.527161949E-4,6.779979992E-3
2.846134596E0,1.527161949E-4,2.596175298E-3,-1.527161949E-4,2.605143115E-3
2.848289700E0,1.527161949E-4,1.374445739E-3,-1.527161949E-4,1.391310735E-3
2.850444804E0,1.374445739E-3,3.817904973E-3,-1.527161949E-4,4.060643017E-3
2.852599908E0,1.527161949E-4,2.596175298E-3,-1.527161949E-4,2.605143115E-3
2.854755012E0,-1.069013379E-3,-2.290742937E-3,-1.527161949E-4,2.532511608E-3
2.856910117E0,1.527161949E-4,6.261364091E-3,1.069013379E-3,6.353801391E-3
2.859065221E0,1.527161949E-4,1.374445739E-3,1.069013379E-3,1.747916740E-3
2.861220325E0,-1.069013379E-3,1.374445739E-3,1.069013379E-3,2.043203440E-3
2.863375429E0,-1.069013379E-3,-1.069013379E-3,1.069013379E-3,1.851585486E-3
2.865530533E0,1.527161949E-4,1.527161949E-4,1.069013379E-3,1.090611790E-3
2.867685637E0,-1.069013379E-3,-2.290742937E-3,-1.527161949E-4,2.532511608E-3
2.869840742E0,1.527161949E-4,3.817904973E-3,-1.527161949E-4,3.824008742E-3
2.871995846E0,1.374445739E-3,3.817904973E-3,1.069013379E-3,4.196223192E-3
2.874150950E0,-1.069013379E-3,-3.512472380E-3,1.069013379E-3,3.824008555E-3
2.876306054E0,-1.069013379E-3,1.527161949E-4,-1.527161949E-4,1.090611790E-3
2.878461158E0,1.374445739E-3,1.527161949E-4,-1.527161949E-4,1.391310735E-3
2.880616262E0,1.374445739E-3,3.817904973E-3,-1.527161949E-4,4.060643017E-3
2.882771367E0,1.527161949E-4,-3.512472380E-3,1.069013379E-3,3.674720950E-3
2.884926471E0,-1.069013379E-3,-1.069013379E-3,-1.527161949E-4,1.519506974E-3
2.887081575E0,-2.290742937E-3,-1.069013379E-3,-1.527161949E-4,2.532511608E-3
2.889236679E0,-1.069013379E-3,-1.069013379E-3,1.069013379E-3,1.851585486E-3
2.891391783E0,1.374445739E-3,6.261364091E-3,-1.527161949E-4,6.412261973E-3
2.893546887E0,1.527161949E-4,1.527161949E-4,-1.374445739E-3,1.391310735E-3
2.895701992E0,1.527161949E-4,1.374445739E-3,-1.527161949E-4,1.391310735E-3
2.897857148E0,1.527161949E-4,2.596175298E-3,-1.527161949E-4,2.605143115E-3
2.900012200E0,1.527161949E-4,5.039634649E-3,-1.527161949E-4,5.044260289E-3
2.902167356E0,-1.069013379E-3,1.374445739E-3,-1.527161949E-4,1.747916740E-3
2.904322408E0,1.527161949E-4,2.596175298E-3,-1.374445739E-3,2.941521631E-3
2.906477512E0,1.527161949E-4,1.527161949E-4,-1.527161949E-4,2.645122086E-4
2.908632617E0,-1.069013379E-3,-1.069013379E-3,-1.527161949E-4,1.519506974E-3
2.910787721E0,1.527161949E-4,-3.512472380E-3,-1.527161949E-4,3.519105951E-3
2.912942825E0,-1.069013379E-3,-2.290742937E-3,-1.374445739E-3,2.877393595E-3
2.915097929E0,1.527161949E-4,-3.512472380E-3,-1.527161949E-4,3.519105951E-3
2.917253085E0,1.527161949E-4,2.596175298E-3,-1.527161949E-4,2.605143115E-3
2.919408190E0,1.527161949E-4,-1.069013379E-3,1.069013379E-3,1.519506974E-3
2.921563294E0,1.527161949E-4,1.374445739E-3,1.069013379E-3,1.747916740E-3
2.923718346E0,1.527161949E-4,1.527161949E-4,-1.527161949E-4,2.645122086E-4
2.925873450E0,-1.069013379E-3,-1.069013379E-3,1.069013379E-3,1.851585486E-3
2.928028606E0,-2.290742937E-3,-4.734201822E-3,-1.527161949E-4,5.261510462E-3
2.930183710E0,1.374445739E-3,3.817904973E-3,-1.527161949E-4,4.060643017E-3
2.932338815E0,-2.290742937E-3,-2.290742937E-3,-1.527161949E-4,3.243197288E-3
2.934493919E0,-1.069013379E-3,1.527161949E-4,-1.527161949E-4,1.090611790E-3
2.936648971E0,-1.069013379E-3,-1.069013379E-3,1.069013379E-3,1.851585486E-3
2.938804127E0,-1.069013379E-3,1.374445739E-3,1.069013379E-3,2.043203440E-3
2.940959231E0,-1.069013379E-3,-1.069013379E-3,-1.527161949E-4,1.519506974E-3
2.943114335E0,1.527161949E-4,-1.069013379E-3,-1.527161949E-4,1.090611790E-3
2.945269440E0,-2.290742937E-3,-2.290742937E-3,-1.527161949E-4,3.243197288E-3
2.947424544E0,1.527161949E-4,2.596175298E-3,-1.527161949E-4,2.605143115E-3
2.949579648E0,1.527161949E-4,-2.290742937E-3,1.069013379E-3,2.532511608E-3
2.951734752E0,-1.069013379E-3,-1.069013379E-3,-1.527161949E-4,1.519506974E-3
2.953889856E0,1.374445739E-3,1.374445739E-3,-1.527161949E-4,1.949749834E-3
2.956044960E0,1.374445739E-3,2.596175298E-3,1.069013379E-3,3.126022532E-3
2.958200065E0,-1.069013379E-3,-3.512472380E-3,-1.527161949E-4,3.674720950E-3
2.960355169E0,1.374445739E-3,-1.069013379E-3,1.069013379E-3,2.043203440E-3
2.962510273E0,1.527161949E-4,1.374445739E-3,-1.374445739E-3,1.949749834E-3
2.964665377E0,1.527161949E-4,1.374445739E-3,-1.527161949E-4,1.391310735E-3
2.966820481E0,2.596175298E-3,5.039634649E-3,-1.527161949E-4,5.671099171E-3
2.968975585E0,1.527161949E-4,1.374445739E-3,-1.527161949E-4,1.391310735E-3
2.971130690E0,-1.069013379E-3,1.527161949E-4,-1.527161949E-4,1.090611790E-3
2.973285794E0,1.527161949E-4,5.039634649E-3,-1.527161949E-4,5.044260289E-3
2.975440898E0,-1.069013379E-3,-2.290742937E-3,-1.527161949E-4,2.532511608E-3
2.977596002E0,1.527161949E-4,1.374445739E-3,-1.527161949E-4,1.391310735E-3
2.979751106E0,1.527161949E-4,1.374445739E-3,-1.527161949E-4,1.391310735E-3
2.981906262E0,1.374445739E-3,3.817904973E-3,1.069013379E-3,4.196223192E-3
2.984061315E0,-1.069013379E-3,-3.512472380E-3,-1.527161949E-4,3.674720950E-3
2.986216419E0,1.527161949E-4,2.596175298E-3,1.069013379E-3,2.811803339E-3
2.988371523E0,1.527161949E-4,1.374445739E-3,-1.527161949E-4,1.391310735E-3
2.990526627E0,-1.069013379E-3,1.527161949E-4,-1.527161949E-4,1.090611790E-3
2.992681731E0,1.374445739E-3,1.527161949E-4,-1.527161949E-4,1.391310735E-3
2.994836835E0,-1.069013379E-3,-2.290742937E-3,-1.527161949E-4,2.532511608E-3
2.996991940E0,1.527161949E-4,-1.069013379E-3,-1.527161949E-4,1.090611790E-3
2.999147044E0,-1.069013379E-3,1.374445739E-3,1.069013379E-3,2.043203440E-3
3.001302148E0,1.374445739E-3,3.817904973E-3,-1.527161949E-4,4.060643017E-3
3.003457252E0,1.527161949E-4,2.596175298E-3,1.069013379E-3,2.811803339E-3
3.005612356E0,-1.069013379E-3,2.596175298E-3,-1.527161949E-4,2.811803339E-3
3.007767460E0,-2.290742937E-3,-2.290742937E-3,-1.527161949E-4,3.243197288E-3
3.009922617E0,-3.512472380E-3,-3.512472380E-3,-1.527161949E-4,4.969733059E-3
3.012077669E0,1.374445739E-3,1.374445739E-3,-1.527161949E-4,1.949749834E-3
3.014232773E0,1.374445739E-3,1.374445739E-3,-1.527161949E-4,1.949749834E-3
3.016387929E0,1.527161949E-4,3.817904973E-3,-1.527161949E-4,3.824008742E-3
3.018542981E0,1.527161949E-4,5.039634649E-3,-1.527161949E-4,5.044260289E-3
3.020698085E0,1.527161949E-4,3.817904973E-3,1.069013379E-3,3.967683232E-3
3.022853190E0,1.527161949E-4,1.527161949E-4,-1.527161949E-4,2.645122086E-4
3.025008294E0,-1.069013379E-3,2.596175298E-3,-1.527161949E-4,2.811803339E-3
3.027163450E0,-1.069013379E-3,3.817904973E-3,-1.374445739E-3,4.196223192E-3
3.029318502E0,1.527161949E-4,-1.069013379E-3,-1.374445739E-3,1.747916740E-3
3.031473606E0,1.374445739E-3,1.527161949E-4,-1.527161949E-4,1.391310735E-3
3.033628762E0,-2.290742937E-3,-1.069013379E-3,1.069013379E-3,2.744646136E-3
3.035783867E0,-1.069013379E-3,1.374445739E-3,-1.527161949E-4,1.747916740E-3
3.037938971E0,1.527161949E-4,1.374445739E-3,-1.527161949E-4,1.391310735E-3
3.040094075E0,1.527161949E-4,5.039634649E-3,-1.527161949E-4,5.044260289E-3
3.042249127E0,2.596175298E-3,6.261364091E-3,-1.374445739E-3,6.916206153E-3
3.044404283E0,1.527161949E-4,1.374445739E-3,-1.527161949E-4,1.391310735E-3
3.046559387E0,1.374445739E-3,1.374445739E-3,-1.527161949E-4,1.949749834E-3
3.048714492E0,-1.069013379E-3,-1.069013379E-3,-1.527161949E-4,1.519506974E-3
3.050869596E0,-1.069013379E-3,-1.069013379E-3,-1.374445739E-3,2.043203440E-3
3.053024700E0,-1.069013379E-3,1.374445739E-3,-1.527161949E-4,1.747916740E-3
3.055179804E0,-1.069013379E-3,1.374445739E-3,-1.527161949E-4,1.747916740E-3
3.057334908E0,1.527161949E-4,2.596175298E-3,-1.374445739E-3,2.941521631E-3
3.059490012E0,-1.069013379E-3,-2.290742937E-3,-1.527161949E-4,2.532511608E-3
3.061645117E0,-1.069013379E-3,1.527161949E-4,-1.527161949E-4,1.090611790E-3
3.063800221E0,-1.069013379E-3,1.374445739E-3,1.069013379E-3,2.043203440E-3
3.065955325E0,-1.069013379E-3,-1.069013379E-3,-1.527161949E-4,1.519506974E-3
3.068110429E0,-1.069013379E-3,-2.290742937E-3,-1.527161949E-4,2.532511608E-3
3.070265533E0,-2.290742937E-3,1.527161949E-4,1.069013379E-3,2.532511608E-3
3.072420637E0,-2.290742937E-3,1.527161949E-4,-1.527161949E-4,2.300901492E-3
3.074575742E0,-2.290742937E-3,-2.290742937E-3,1.069013379E-3,3.411421407E-3
3.076730846E0,1.527161949E-4,1.527161949E-4,1.069013379E-3,1.090611790E-3
3.078885950E0,1.374445739E-3,-2.290742937E-3,-1.527161949E-4,2.675803904E-3
3.081041054E0,1.527161949E-4,1.527161949E-4,-1.527161949E-4,2.645122086E-4
3.083196158E0,-1.069013379E-3,1.374445739E-3,-1.527161949E-4,1.747916740E-3
3.085351262E0,1.527161949E-4,-1.069013379E-3,1.069013379E-3,1.519506974E-3
3.087506367E0,1.527161949E-4,5.039634649E-3,-1.374445739E-3,5.225929651E-3
3.089661471E0,1.527161949E-4,2.596175298E-3,-1.527161949E-4,2.605143115E-3
3.091816575E0,-1.069013379E-3,1.527161949E-4,-1.527161949E-4,1.090611790E-3
3.093971679E0,-1.069013379E-3,-1.069013379E-3,-1.527161949E-4,1.519506974E-3
3.096126835E0,1.527161949E-4,3.817904973E-3,-1.374445739E-3,4.060643017E-3
3.098281887E0,-1.069013379E-3,1.527161949E-4,-1.374445739E-3,1.747916740E-3
3.100437044E0,1.527161949E-4,-2.290742937E-3,1.069013379E-3,2.532511608E-3
3.102592148E0,1.527161949E-4,-1.069013379E-3,-1.527161949E-4,1.090611790E-3
3.104747200E0,1.527161949E-4,2.596175298E-3,-1.374445739E-3,2.941521631E-3
3.106902304E0,1.527161949E-4,1.527161949E-4,-1.527161949E-4,2.645122086E-4
3.109057408E0,1.527161949E-4,-1.069013379E-3,1.069013379E-3,1.519506974E-3
3.111212565E0,1.527161949E-4,1.374445739E-3,-1.527161949E-4,1.391310735E-3
3.113367669E0,1.527161949E-4,-1.069013379E-3,-1.527161949E-4,1.090611790E-3
3.115522721E0,1.527161949E-4,1.374445739E-3,1.069013379E-3,1.747916740E-3
3.117677877E0,1.527161949E-4,1.374445739E-3,-1.374445739E-3,1.949749834E-3
3.119832981E0,-1.069013379E-3,-1.069013379E-3,-1.374445739E-3,2.043203440E-3
3.121988085E0,2.596175298E-3,3.817904973E-3,-1.527161949E-4,4.619507203E-3
3.124143190E0,-1.069013379E-3,5.039634649E-3,-1.527161949E-4,5.154030387E-3
3.126298294E0,1.527161949E-4,2.596175298E-3,-1.527161949E-4,2.605143115E-3
3.128453398E0,1.374445739E-3,3.817904973E-3,-1.527161949E-4,4.060643017E-3
3.130608502E0,1.527161949E-4,3.817904973E-3,-1.527161949E-4,3.824008742E-3
3.132763606E0,1.527161949E-4,1.374445739E-3,-1.527161949E-4,1.391310735E-3
3.134918710E0,1.527161949E-4,2.596175298E-3,1.069013379E-3,2.811803339E-3
3.137073815E0,1.374445739E-3,-2.290742937E-3,1.069013379E-3,2.877393595E-3
3.139228919E0,1.374445739E-3,1.374445739E-3,-1.527161949E-4,1.949749834E-3
3.141384023E0,1.527161949E-4,1.527161949E-4,-1.527161949E-4,2.645122086E-4
3.143539127E0,1.374445739E-3,6.261364091E-3,-1.374445739E-3,6.556133194E-3
3.145694231E0,-1.069013379E-3,-1.069013379E-3,-1.527161949E-4,1.519506974E-3
3.147849335E0,1.527161949E-4,1.374445739E-3,1.069013379E-3,1.747916740E-3
3.150004440E0,-1.069013379E-3,1.527161949E-4,-1.527161949E-4,1.090611790E-3
3.152159544E0,-1.069013379E-3,-1.069013379E-3,1.069013379E-3,1.851585486E-3
3.154314648E0,1.527161949E-4,1.374445739E-3,-1.527161949E-4,1.391310735E-3
3.156469752E0,-1.069013379E-3,1.374445739E-3,2.290742937E-3,2.877393595E-3
3.158624856E0,1.527161949E-4,-1.069013379E-3,-1.527161949E-4,1.090611790E-3
3.160779960E0,1.527161949E-4,2.596175298E-3,1.069013379E-3,2.811803339E-3
3.162935065E0,1.527161949E-4,1.527161949E-4,-1.527161949E-4,2.645122086E-4
3.165090169E0,1.527161949E-4,-1.069013379E-3,-1.527161949E-4,1.090611790E-3
3.167245273E0,-1.069013379E-3,1.527161949E-4,-1.527161949E-4,1.090611790E-3
3.169400377E0,-2.290742937E-3,-1.069013379E-3,-1.527161949E-4,2.532511608E-3
3.171555481E0,1.374445739E-3,-1.069013379E-3,1.069013379E-3,2.043203440E-3
3.173710585E0,1.527161949E-4,-2.290742937E-3,-1.527161949E-4,2.300901492E-3
3.175865690E0,-1.069013379E-3,-2.290742937E-3,1.069013379E-3,2.744646136E-3
3.178020794E0,1.527161949E-4,1.527161949E-4,-1.527161949E-4,2.645122086E-4
3.180175898E0,-1.069013379E-3,1.374445739E-3,1.069013379E-3,2.043203440E-3
3.182331002E0,-1.069013379E-3,2.596175298E-3,-1.374445739E-3,3.126022532E-3
3.184486106E0,1.527161949E-4,1.527161949E-4,-1.527161949E-4,2.645122086E-4
3.186641210E0,1.527161949E-4,1.527161949E-4,-1.527161949E-4,2.645122086E-4
3.188796315E0,-2.290742937E-3,1.527161949E-4,-1.374445739E-3,2.675803904E-3
3.190951419E0,1.374445739E-3,2.596175298E-3,-1.374445739E-3,3.243197243E-3
3.193106575E0,1.374445739E-3,2.596175298E-3,-1.527161949E-4,2.941521631E-3
3.195261627E0,1.374445739E-3,2.596175298E-3,-1.527161949E-4,2.941521631E-3
3.197416783E0,-1.069013379E-3,1.374445739E-3,-1.527161949E-4,1.747916740E-3
3.199571887E0,-1.069013379E-3,-3.512472380E-3,-1.527161949E-4,3.674720950E-3
3.201726992E0,1.374445739E-3,1.374445739E-3,1.069013379E-3,2.218330855E-3
3.203882096E0,1.527161949E-4,1.527161949E-4,1.069013379E-3,1.090611790E-3
3.206037200E0,1.527161949E-4,2.596175298E-3,-1.527161949E-4,2.605143115E-3
3.208192304E0,1.527161949E-4,1.527161949E-4,1.069013379E-3,1.090611790E-3
3.210347408E0,-1.069013379E-3,1.527161949E-4,-1.527161949E-4,1.090611790E-3
3.212502460E0,1.527161949E-4,-2.290742937E-3,1.069013379E-3,2.532511608E-3
3.214657617E0,1.527161949E-4,1.527161949E-4,-1.527161949E-4,2.645122086E-4
3.216812721E0,1.527161949E-4,-2.290742937E-3,1.069013379E-3,2.532511608E-3
3.218967825E0,1.527161949E-4,1.527161949E-4,1.069013379E-3,1.090611790E-3
3.221122929E0,1.374445739E-3,-2.290742937E-3,-1.527161949E-4,2.675803904E-3
3.223278033E0,1.527161949E-4,-1.069013379E-3,-1.527161949E-4,1.090611790E-3
3.225433137E0,-1.069013379E-3,-1.069013379E-3,1.069013379E-3,1.851585486E-3
3.227588242E0,1.527161949E-4,-3.512472380E-3,1.069013379E-3,3.674720950E-3
3.229743346E0,1.527161949E-4,-1.069013379E-3,-1.527161949E-4,1.090611790E-3
3.231898450E0,1.374445739E-3,1.527161949E-4,-1.527161949E-4,1.391310735E-3
3.234053554E0,1.374445739E-3,5.039634649E-3,-1.374445739E-3,5.401492347E-3
3.236208658E0,1.527161949E-4,1.527161949E-4,-1.527161949E-4,2.645122086E-4
3.238363762E0,-1.069013379E-3,1.527161949E-4,-1.374445739E-3,1.747916740E-3
3.240518867E0,-1.069013379E-3,-4.734201822E-3,1.069013379E-3,4.969733001E-3
3.242673971E0,1.527161949E-4,2.596175298E-3,-1.527161949E-4,2.605143115E-3
3.244829075E0,1.527161949E-4,1.527161949E-4,-1.527161949E-4,2.645122086E-4
3.246984179E0,1.527161949E-4,-1.069013379E-3,-1.527161949E-4,1.090611790E-3
3.249139283E0,1.374445739E-3,-2.290742937E-3,1.069013379E-3,2.877393595E-3
3.251294387E0,-1.069013379E-3,-3.512472380E-3,-1.527161949E-4,3.674720950E-3
3.253449492E0,1.527161949E-4,1.527161949E-4,-1.527161949E-4,2.645122086E-4
3.255604596E0,1.374445739E-3,-1.069013379E-3,-1.527161949E-4,1.747916740E-3
3.257759700E0,1.374445739E-3,2.596175298E-3,1.069013379E-3,3.126022532E-3
3.259914804E0,1.527161949E-4,1.527161949E-4,1.069013379E-3,1.090611790E-3
3.262069908E0,1.374445739E-3,1.527161949E-4,-1.527161949E-4,1.391310735E-3
3.264225012E0,1.374445739E-3,-1.069013379E-3,1.069013379E-3,2.043203440E-3
3.266380117E0,-1.069013379E-3,-4.734201822E-3,1.069013379E-3,4.969733001E-3
3.268535221E0,-1.069013379E-3,-1.069013379E-3,-1.527161949E-4,1.519506974E-3
3.270690325E0,-1.069013379E-3,-2.290742937E-3,-1.374445739E-3,2.877393595E-3
3.272845481E0,-2.290742937E-3,1.527161949E-4,-1.374445739E-3,2.675803904E-3
3.275000533E0,-1.069013379E-3,-3.512472380E-3,1.069013379E-3,3.824008555E-3
3.277155637E0,1.527161949E-4,-1.069013379E-3,-1.527161949E-4,1.090611790E-3
3.279310742E0,1.374445739E-3,1.527161949E-4,-1.527161949E-4,1.391310735E-3
3.281465846E0,1.527161949E-4,-1.069013379E-3,-1.527161949E-4,1.090611790E-3
3.283620950E0,1.374445739E-3,1.374445739E-3,-1.527161949E-4,1.949749834E-3
3.285776106E0,1.527161949E-4,-2.290742937E-3,1.069013379E-3,2.532511608E-3
3.287931158E0,1.527161949E-4,-1.069013379E-3,-1.527161949E-4,1.090611790E-3
3.290086262E0,1.527161949E-4,-1.069013379E-3,-1.527161949E-4,1.090611790E-3
3.292241419E0,1.374445739E-3,2.596175298E-3,1.069013379E-3,3.126022532E-3
3.294396523E0,1.527161949E-4,3.817904973E-3,-1.527161949E-4,3.824008742E-3
3.296551627E0,-1.069013379E-3,-1.069013379E-3,-1.374445739E-3,2.043203440E-3
3.298706679E0,1.374445739E-3,1.527161949E-4,-1.527161949E-4,1.391310735E-3
3.300861835E0,-1.069013379E-3,-4.734201822E-3,-1.527161949E-4,4.855798465E-3
3.303016940E0,-2.290742937E-3,-2.290742937E-3,-1.527161949E-4,3.243197288E-3
3.305172044E0,-1.069013379E-3,1.527161949E-4,-1.527161949E-4,1.090611790E-3
3.307327096E0,-2.290742937E-3,-2.290742937E-3,-1.527161949E-4,3.243197288E-3
3.309482252E0,-1.069013379E-3,1.374445739E-3,-1.374445739E-3,2.218330855E-3
3.311637304E0,-1.069013379E-3,1.374445739E-3,1.069013379E-3,2.043203440E-3
3.313792460E0,1.527161949E-4,1.527161949E-4,-1.527161949E-4,2.645122086E-4
3.315947565E0,1.374445739E-3,-1.069013379E-3,1.069013379E-3,2.043203440E-3
3.318102669E0,-1.069013379E-3,-2.290742937E-3,-1.527161949E-4,2.532511608E-3
3.320257773E0,-1.069013379E-3,1.374445739E-3,-1.527161949E-4,1.747916740E-3
3.322412877E0,2.596175298E-3,6.261364091E-3,-1.527161949E-4,6.779979992E-3
3.324567981E0,1.527161949E-4,-3.512472380E-3,-1.527161949E-4,3.519105951E-3
3.326723085E0,-3.512472380E-3,-3.512472380E-3,1.069013379E-3,5.081113465E-3
3.328878190E0,1.527161949E-4,-1.069013379E-3,-1.527161949E-4,1.090611790E-3
3.331033294E0,-1.069013379E-3,1.374445739E-3,-1.527161949E-4,1.747916740E-3
3.333188398E0,1.527161949E-4,1.527161949E-4,1.069013379E-3,1.090611790E-3
3.335343502E0,1.527161949E-4,-3.512472380E-3,-1.527161949E-4,3.519105951E-3
3.337498606E0,-1.069013379E-3,-2.290742937E-3,1.069013379E-3,2.744646136E-3
3.339653710E0,-1.069013379E-3,-2.290742937E-3,-1.527161949E-4,2.532511608E-3
3.341808815E0,-1.069013379E-3,2.596175298E-3,-1.527161949E-4,2.811803339E-3
3.343963919E0,-2.290742937E-3,-4.734201822E-3,-1.527161949E-4,5.261510462E-3
3.346119023E0,2.596175298E-3,2.596175298E-3,-1.527161949E-4,3.674721022E-3
3.348274127E0,-1.069013379E-3,1.527161949E-4,-1.527161949E-4,1.090611790E-3
3.350429231E0,1.527161949E-4,1.527161949E-4,-1.527161949E-4,2.645122086E-4
3.352584335E0,1.527161949E-4,1.527161949E-4,1.069013379E-3,1.090611790E-3
3.354739440E0,1.527161949E-4,2.596175298E-3,-1.527161949E-4,2.605143115E-3
3.356894544E0,-1.069013379E-3,1.527161949E-4,-1.527161949E-4,1.090611790E-3
3.359049648E0,1.374445739E-3,1.527161949E-4,-1.527161949E-4,1.391310735E-3
3.361204752E0,-1.069013379E-3,1.527161949E-4,-1.527161949E-4,1.090611790E-3
3.363359856E0,-1.069013379E-3,1.527161949E-4,-1.527161949E-4,1.090611790E-3
3.365514960E0,-2.290742937E-3,-2.290742937E-3,-1.527161949E-4,3.243197288E-3
3.367670065E0,-2.290742937E-3,-3.512472380E-3,-1.374445739E-3,4.412943067E-3
3.369825169E0,-1.069013379E-3,-1.069013379E-3,-1.527161949E-4,1.519506974E-3
3.371980273E0,-1.069013379E-3,-2.290742937E-3,-1.527161949E-4,2.532511608E-3
3.374135377E0,-1.069013379E-3,-4.734201822E-3,1.069013379E-3,4.969733001E-3
3.376290481E0,-1.069013379E-3,-1.069013379E-3,2.290742937E-3,2.744646136E-3
3.378445637E0,1.374445739E-3,-2.290742937E-3,-1.527161949E-4,2.675803904E-3
3.380600690E0,2.596175298E-3,5.039634649E-3,-1.527161949E-4,5.671099171E-3
3.382755794E0,1.527161949E-4,1.374445739E-3,1.069013379E-3,1.747916740E-3
3.384910950E0,-1.069013379E-3,1.527161949E-4,1.069013379E-3,1.519506974E-3
3.387066054E0,1.527161949E-4,1.527161949E-4,-1.527161949E-4,2.645122086E-4
3.389221106E0,1.527161949E-4,-1.069013379E-3,-1.527161949E-4,1.090611790E-3
3.391376210E0,1.527161949E-4,1.527161949E-4,1.069013379E-3,1.090611790E-3
3.393531367E0,-2.290742937E-3,1.527161949E-4,-1.527161949E-4,2.300901492E-3
3.395686419E0,1.374445739E-3,1.527161949E-4,-1.527161949E-4,1.391310735E-3
3.397841523E0,1.527161949E-4,-2.290742937E-3,-1.527161949E-4,2.300901492E-3
3.399996679E0,2.596175298E-3,6.261364091E-3,-1.527161949E-4,6.779979992E-3
3.402151783E0,1.527161949E-4,2.596175298E-3,1.069013379E-3,2.811803339E-3
3.404306887E0,-1.069013379E-3,-2.290742937E-3,-1.527161949E-4,2.532511608E-3
3.406461992E0,-1.069013379E-3,-2.290742937E-3,-1.527161949E-4,2.532511608E-3
3.408617044E0,-1.069013379E-3,-3.512472380E-3,-1.374445739E-3,3.920376629E-3
3.410772200E0,1.527161949E-4,-2.290742937E-3,-1.527161949E-4,2.300901492E-3
3.412927304E0,-1.069013379E-3,-2.290742937E-3,-1.374445739E-3,2.877393595E-3
3.415082356E0,1.527161949E-4,1.374445739E-3,-1.527161949E-4,1.391310735E-3
3.417237512E0,1.527161949E-4,1.527161949E-4,1.069013379E-3,1.090611790E-3
3.419392617E0,1.374445739E-3,5.039634649E-3,-1.527161949E-4,5.225929651E-3
3.421547721E0,1.527161949E-4,1.527161949E-4,1.069013379E-3,1.090611790E-3
3.423702825E0,1.527161949E-4,-2.290742937E-3,1.069013379E-3,2.532511608E-3
3.425857929E0,1.374445739E-3,1.527161949E-4,1.069013379E-3,1.747916740E-3
3.428013033E0,1.527161949E-4,-1.069013379E-3,-1.527161949E-4,1.090611790E-3
3.430168137E0,1.527161949E-4,1.374445739E-3,-1.527161949E-4,1.391310735E-3
3.432323242E0,1.527161949E-4,-1.069013379E-3,1.069013379E-3,1.519506974E-3
