"Time (s)","Gyroscope x (rad/s)","Gyroscope y (rad/s)","Gyroscope z (rad/s)","Absolute (rad/s)"
2.166568800E-2,8.704823442E-3,-1.893680729E-2,-6.108647794E-4,2.085065412E-2
2.382094800E-2,2.596175298E-3,-1.527161989E-2,-6.108647794E-4,1.550276285E-2
2.597620900E-2,-2.290742937E-3,-6.719512399E-3,-6.108647794E-4,7.125482852E-3
2.813146900E-2,-7.177661173E-3,6.108647794E-4,-6.108647794E-4,7.229462737E-3
3.028673000E-2,-1.328630932E-2,5.497782957E-3,6.108647794E-4,1.439183062E-2
3.244199000E-2,-1.450803876E-2,1.832594397E-3,-6.108647794E-4,1.463607689E-2
3.459730200E-2,-9.621120058E-3,5.497782957E-3,6.108647794E-4,1.109796037E-2
3.675256300E-2,-8.399390616E-3,-1.832594397E-3,-6.108647794E-4,8.618661190E-3
3.890782300E-2,-3.512472380E-3,-5.497782957E-3,-6.108647794E-4,6.552574718E-3
4.106313600E-2,-2.290742937E-3,-1.282816008E-2,-6.108647794E-4,1.304539574E-2
4.321839600E-2,1.527161949E-4,-1.404988952E-2,6.108647794E-4,1.406399209E-2
4.537365700E-2,2.596175298E-3,-1.649334840E-2,6.108647794E-4,1.670759778E-2
4.752891700E-2,5.039634649E-3,-1.649334840E-2,6.108647794E-4,1.725692947E-2
4.968423000E-2,5.039634649E-3,-1.404988952E-2,6.108647794E-4,1.493889115E-2
5.183949000E-2,9.926552884E-3,-1.160643063E-2,6.108647794E-4,1.528459486E-2
5.399475000E-2,9.926552884E-3,-1.160643063E-2,-6.108647794E-4,1.528459486E-2
5.615001100E-2,1.359174121E-2,-6.719512399E-3,6.108647794E-4,1.517433464E-2
5.830532300E-2,1.237001177E-2,-3.054323839E-3,6.108647794E-4,1.275614523E-2
6.046058400E-2,1.114828233E-2,-6.108647794E-4,-6.108647794E-4,1.118170427E-2
6.261584400E-2,7.483093534E-3,3.054323839E-3,-6.108647794E-4,8.105475848E-3
6.477110500E-2,5.039634649E-3,6.719512399E-3,-6.108647794E-4,8.421574678E-3
6.692641700E-2,-2.290742937E-3,5.497782957E-3,6.108647794E-4,5.987175997E-3
6.908167700E-2,-4.734201822E-3,3.054323839E-3,6.108647794E-4,5.666984806E-3
7.123699000E-2,-8.399390616E-3,6.108647794E-4,-6.108647794E-4,8.443700271E-3
7.339225000E-2,-7.177661173E-3,-5.497782957E-3,-1.832594397E-3,9.225120031E-3
7.554751100E-2,-9.621120058E-3,-7.941242307E-3,-6.108647794E-4,1.249009353E-2
7.770277100E-2,-5.955931731E-3,-1.282816008E-2,-6.108647794E-4,1.415655218E-2
7.985803200E-2,-4.734201822E-3,-1.893680729E-2,-1.832594397E-3,1.960545178E-2
8.201334400E-2,-1.069013379E-3,-1.771507785E-2,-6.108647794E-4,1.775781317E-2
8.416860500E-2,1.374445739E-3,-2.015853859E-2,-6.108647794E-4,2.021457235E-2
8.632386500E-2,2.596175298E-3,-1.527161989E-2,6.108647794E-4,1.550276285E-2
8.847912500E-2,3.817904973E-3,-1.160643063E-2,-6.108647794E-4,1.223351079E-2
9.063443800E-2,7.483093534E-3,-9.162971750E-3,-6.108647794E-4,1.184609201E-2
9.278969800E-2,7.483093534E-3,-5.497782957E-3,-6.108647794E-4,9.305668275E-3
9.494495900E-2,6.261364091E-3,6.108647794E-4,6.108647794E-4,6.320679698E-3
9.710021900E-2,3.817904973E-3,7.941242307E-3,1.832594397E-3,8.999896110E-3
9.925548000E-2,5.039634649E-3,5.497782957E-3,-6.108647794E-4,7.483093652E-3
1.014107920E-1,1.374445739E-3,3.054323839E-3,6.108647794E-4,3.404577945E-3
1.035660520E-1,1.527161949E-4,7.941242307E-3,6.108647794E-4,7.966166418E-3
1.057213130E-1,-2.290742937E-3,4.276053514E-3,-6.108647794E-4,4.889303902E-3
1.078766250E-1,-3.512472380E-3,1.832594397E-3,6.108647794E-4,4.008618243E-3
1.100318860E-1,-4.734201822E-3,-5.497782957E-3,-6.108647794E-4,7.280895557E-3
1.121871460E-1,-2.290742937E-3,-9.162971750E-3,-6.108647794E-4,9.464708673E-3
1.143424070E-1,-3.512472380E-3,-1.404988952E-2,-6.108647794E-4,1.449517208E-2
1.164977190E-1,-2.290742937E-3,-2.138026804E-2,6.108647794E-4,2.151131145E-2
1.186529800E-1,-1.069013379E-3,-1.893680729E-2,-6.108647794E-4,1.897679150E-2
1.208082400E-1,-2.290742937E-3,-1.282816008E-2,6.108647794E-4,1.304539574E-2
1.229635520E-1,-2.290742937E-3,-1.160643063E-2,-6.108647794E-4,1.184609181E-2
1.251187610E-1,1.527161949E-4,-7.941242307E-3,6.108647794E-4,7.966166418E-3
1.272740730E-1,1.374445739E-3,6.108647794E-4,6.108647794E-4,1.623395407E-3
1.294293340E-1,3.817904973E-3,4.276053514E-3,-6.108647794E-4,5.764910045E-3
1.315845940E-1,7.483093534E-3,3.054323839E-3,-6.108647794E-4,8.105475848E-3
1.337398550E-1,9.926552884E-3,7.941242307E-3,-6.108647794E-4,1.272685889E-2
1.358951670E-1,8.704823442E-3,1.038470119E-2,6.108647794E-4,1.356425913E-2
1.380504270E-1,6.261364091E-3,1.038470119E-2,-6.108647794E-4,1.214165783E-2
1.402056880E-1,2.596175298E-3,5.497782957E-3,-6.108647794E-4,6.110556390E-3
1.423610000E-1,-1.069013379E-3,6.719512399E-3,6.108647794E-4,6.831382896E-3
1.445162090E-1,-2.290742937E-3,6.108647794E-4,6.108647794E-4,2.448226861E-3
1.466715210E-1,-5.955931731E-3,-6.108647794E-4,-6.108647794E-4,6.018258414E-3
1.488267820E-1,-3.512472380E-3,-3.054323839E-3,-1.832594397E-3,5.002475243E-3
1.509820940E-1,-4.734201822E-3,-1.160643063E-2,1.832594397E-3,1.266808199E-2
1.531373550E-1,-3.512472380E-3,-1.282816008E-2,-6.108647794E-4,1.331436476E-2
1.552926150E-1,-2.290742937E-3,-1.771507785E-2,-6.108647794E-4,1.787301435E-2
1.574478750E-1,-1.069013379E-3,-1.527161989E-2,6.108647794E-4,1.532117226E-2
1.596031880E-1,1.374445739E-3,-1.282816008E-2,6.108647794E-4,1.291603452E-2
1.617584480E-1,1.374445739E-3,-9.162971750E-3,-6.108647794E-4,9.285596812E-3
1.639137090E-1,1.374445739E-3,-1.832594397E-3,-6.108647794E-4,2.370792925E-3
1.660690210E-1,1.374445739E-3,-6.108647794E-4,6.108647794E-4,1.623395407E-3
1.682242820E-1,3.817904973E-3,1.832594397E-3,6.108647794E-4,4.278779778E-3
1.703795420E-1,3.817904973E-3,5.497782957E-3,6.108647794E-4,6.721247771E-3
1.725348020E-1,3.817904973E-3,6.719512399E-3,-6.108647794E-4,7.752509339E-3
1.746901150E-1,1.527161949E-4,7.941242307E-3,6.108647794E-4,7.966166418E-3
1.768453750E-1,1.374445739E-3,5.497782957E-3,-6.108647794E-4,5.699813533E-3
1.790006360E-1,-2.290742937E-3,4.276053514E-3,-6.108647794E-4,4.889303902E-3
1.811558960E-1,-2.290742937E-3,-1.832594397E-3,-6.108647794E-4,2.996508169E-3
1.833111570E-1,1.374445739E-3,4.276053514E-3,-6.108647794E-4,4.532867804E-3
1.854664170E-1,-1.069013379E-3,-4.276053514E-3,6.108647794E-4,4.449784157E-3
1.876217300E-1,-3.512472380E-3,-1.038470119E-2,-6.108647794E-4,1.097964648E-2
1.897769900E-1,-4.734201822E-3,-1.160643063E-2,-6.108647794E-4,1.254970337E-2
1.919322500E-1,-1.069013379E-3,-1.038470119E-2,-6.108647794E-4,1.045743583E-2
1.940875110E-1,-2.290742937E-3,-9.162971750E-3,6.108647794E-4,9.464708673E-3
1.962428230E-1,-4.734201822E-3,-7.941242307E-3,6.108647794E-4,9.265481750E-3
1.983980840E-1,-1.069013379E-3,-1.832594397E-3,-6.108647794E-4,2.207792473E-3
2.005533440E-1,1.527161949E-4,7.941242307E-3,-6.108647794E-4,7.966166418E-3
2.027086050E-1,2.596175298E-3,7.941242307E-3,-6.108647794E-4,8.377148163E-3
2.048639170E-1,2.596175298E-3,7.941242307E-3,-1.832594397E-3,8.553470511E-3
2.070191770E-1,7.483093534E-3,1.038470119E-2,-6.108647794E-4,1.281451768E-2
2.091744380E-1,6.261364091E-3,9.162971750E-3,6.108647794E-4,1.111475989E-2
2.113296980E-1,5.039634649E-3,1.038470119E-2,-6.108647794E-4,1.155911294E-2
2.134850110E-1,2.596175298E-3,9.162971750E-3,6.108647794E-4,9.543234947E-3
2.156402710E-1,2.596175298E-3,1.160643063E-2,-6.108647794E-4,1.190892581E-2
2.177955320E-1,1.374445739E-3,9.162971750E-3,-6.108647794E-4,9.285596812E-3
2.199507920E-1,1.527161949E-4,1.832594397E-3,-6.108647794E-4,1.937751335E-3
2.221061050E-1,-2.290742937E-3,-3.054323839E-3,6.108647794E-4,3.866465194E-3
2.242613650E-1,-1.069013379E-3,-1.832594397E-3,6.108647794E-4,2.207792473E-3
2.264166250E-1,-1.069013379E-3,-4.276053514E-3,6.108647794E-4,4.449784157E-3
2.285718860E-1,-1.069013379E-3,-9.162971750E-3,6.108647794E-4,9.245322962E-3
2.307271980E-1,1.374445739E-3,-6.719512399E-3,6.108647794E-4,6.885789988E-3
2.328824590E-1,1.527161949E-4,-3.054323839E-3,-6.108647794E-4,3.118552890E-3
2.350377190E-1,1.374445739E-3,-1.832594397E-3,6.108647794E-4,2.370792925E-3
2.371930320E-1,1.527161949E-4,-3.054323839E-3,6.108647794E-4,3.118552890E-3
2.393482920E-1,-1.069013379E-3,6.108647794E-4,-6.108647794E-4,1.374445765E-3
2.415035520E-1,2.596175298E-3,4.276053514E-3,-6.108647794E-4,5.039634472E-3
2.436588130E-1,1.374445739E-3,9.162971750E-3,-6.108647794E-4,9.285596812E-3
2.458140730E-1,1.527161949E-4,9.162971750E-3,6.108647794E-4,9.184581063E-3
2.479693860E-1,3.817904973E-3,6.719512399E-3,-6.108647794E-4,7.752509339E-3
2.501246460E-1,1.374445739E-3,4.276053514E-3,-1.832594397E-3,4.850993400E-3
2.522799070E-1,1.374445739E-3,3.054323839E-3,-6.108647794E-4,3.404577945E-3
2.544351670E-1,2.596175298E-3,5.497782957E-3,6.108647794E-4,6.110556390E-3
2.565904800E-1,1.374445739E-3,5.497782957E-3,-6.108647794E-4,5.699813533E-3
2.587457400E-1,-1.069013379E-3,6.108647794E-4,-6.108647794E-4,1.374445765E-3
2.609010000E-1,-2.290742937E-3,-1.832594397E-3,-6.108647794E-4,2.996508169E-3
2.630562610E-1,-3.512472380E-3,-3.054323839E-3,-6.108647794E-4,4.694625876E-3
2.652115730E-1,-4.734201822E-3,-1.832594397E-3,-6.108647794E-4,5.113142370E-3
2.673668340E-1,-3.512472380E-3,-3.054323839E-3,-6.108647794E-4,4.694625876E-3
2.695220940E-1,-2.290742937E-3,-1.832594397E-3,-6.108647794E-4,2.996508169E-3
2.716774070E-1,-1.069013379E-3,1.832594397E-3,6.108647794E-4,2.207792473E-3
2.738326670E-1,1.527161949E-4,3.054323839E-3,6.108647794E-4,3.118552890E-3
2.759879270E-1,1.527161949E-4,5.497782957E-3,6.108647794E-4,5.533723471E-3
2.781431880E-1,1.527161949E-4,1.832594397E-3,6.108647794E-4,1.937751335E-3
2.802984480E-1,1.374445739E-3,4.276053514E-3,-6.108647794E-4,4.532867804E-3
2.824537610E-1,2.596175298E-3,9.162971750E-3,-6.108647794E-4,9.543234947E-3
2.846090210E-1,2.596175298E-3,7.941242307E-3,-6.108647794E-4,8.377148163E-3
2.867642820E-1,1.374445739E-3,6.719512399E-3,6.108647794E-4,6.885789988E-3
2.889195420E-1,1.527161949E-4,3.054323839E-3,6.108647794E-4,3.118552890E-3
2.910748020E-1,-1.069013379E-3,6.719512399E-3,-6.108647794E-4,6.831382896E-3
2.932300630E-1,-2.290742937E-3,6.719512399E-3,-6.108647794E-4,7.125482852E-3
2.953853750E-1,-3.512472380E-3,6.108647794E-4,6.108647794E-4,3.617149952E-3
2.975406360E-1,-2.290742937E-3,3.054323839E-3,-1.832594397E-3,4.234949768E-3
2.996958960E-1,-1.069013379E-3,3.054323839E-3,-6.108647794E-4,3.293150391E-3
3.018512090E-1,1.527161949E-4,-6.108647794E-4,-6.108647794E-4,8.772877485E-4
3.040064690E-1,-1.069013379E-3,-6.108647794E-4,6.108647794E-4,1.374445765E-3
3.061617300E-1,1.374445739E-3,4.276053514E-3,6.108647794E-4,4.532867804E-3
3.083169900E-1,1.527161949E-4,1.832594397E-3,-6.108647794E-4,1.937751335E-3
3.104723020E-1,-2.290742937E-3,4.276053514E-3,-6.108647794E-4,4.889303902E-3
3.126275630E-1,-1.069013379E-3,3.054323839E-3,-6.108647794E-4,3.293150391E-3
3.147828230E-1,1.374445739E-3,6.719512399E-3,-6.108647794E-4,6.885789988E-3
3.169380840E-1,2.596175298E-3,9.162971750E-3,-6.108647794E-4,9.543234947E-3
3.190933960E-1,1.374445739E-3,1.038470119E-2,-6.108647794E-4,1.049305845E-2
3.212486570E-1,1.374445739E-3,4.276053514E-3,-6.108647794E-4,4.532867804E-3
3.234039170E-1,1.374445739E-3,9.162971750E-3,6.108647794E-4,9.285596812E-3
3.255591770E-1,1.527161949E-4,6.719512399E-3,-6.108647794E-4,6.748949911E-3
3.277144380E-1,1.374445739E-3,4.276053514E-3,6.108647794E-4,4.532867804E-3
3.298697500E-1,1.527161949E-4,3.054323839E-3,6.108647794E-4,3.118552890E-3
3.320250110E-1,-1.069013379E-3,1.832594397E-3,6.108647794E-4,2.207792473E-3
3.341802710E-1,1.374445739E-3,5.497782957E-3,-6.108647794E-4,5.699813533E-3
3.363355320E-1,1.527161949E-4,3.054323839E-3,6.108647794E-4,3.118552890E-3
3.384908440E-1,-2.290742937E-3,6.108647794E-4,-6.108647794E-4,2.448226861E-3
3.406461050E-1,-2.290742937E-3,-6.108647794E-4,-6.108647794E-4,2.448226861E-3
3.428013650E-1,-2.290742937E-3,1.832594397E-3,-6.108647794E-4,2.996508169E-3
3.449566770E-1,1.527161949E-4,1.832594397E-3,-1.832594397E-3,2.596175395E-3
3.471119380E-1,1.374445739E-3,4.276053514E-3,-6.108647794E-4,4.532867804E-3
3.492671980E-1,1.527161949E-4,1.832594397E-3,6.108647794E-4,1.937751335E-3
3.514224590E-1,2.596175298E-3,5.497782957E-3,-6.108647794E-4,6.110556390E-3
3.535777190E-1,1.374445739E-3,5.497782957E-3,6.108647794E-4,5.699813533E-3
3.557330320E-1,1.374445739E-3,7.941242307E-3,-6.108647794E-4,8.082424528E-3
3.578882920E-1,1.527161949E-4,7.941242307E-3,-1.832594397E-3,8.151383554E-3
3.600435520E-1,1.374445739E-3,1.038470119E-2,-1.832594397E-3,1.063435575E-2
3.621988130E-1,-1.069013379E-3,9.162971750E-3,-6.108647794E-4,9.245322962E-3
3.643541250E-1,1.527161949E-4,5.497782957E-3,-6.108647794E-4,5.533723471E-3
3.665093860E-1,-1.069013379E-3,7.941242307E-3,-6.108647794E-4,8.036123118E-3
3.686646460E-1,-1.069013379E-3,5.497782957E-3,-6.108647794E-4,5.633965107E-3
3.708199070E-1,-3.512472380E-3,5.497782957E-3,1.832594397E-3,6.776539078E-3
3.729752190E-1,1.527161949E-4,6.719512399E-3,6.108647794E-4,6.748949911E-3
3.751304800E-1,1.527161949E-4,3.054323839E-3,6.108647794E-4,3.118552890E-3
3.772857400E-1,-1.069013379E-3,1.832594397E-3,6.108647794E-4,2.207792473E-3
3.794410000E-1,1.527161949E-4,3.054323839E-3,6.108647794E-4,3.118552890E-3
3.815962610E-1,1.527161949E-4,6.719512399E-3,6.108647794E-4,6.748949911E-3
3.837515730E-1,1.527161949E-4,6.719512399E-3,6.108647794E-4,6.748949911E-3
3.859068340E-1,1.374445739E-3,7.941242307E-3,-1.832594397E-3,8.265036763E-3
3.880620940E-1,2.596175298E-3,9.162971750E-3,6.108647794E-4,9.543234947E-3
3.902173550E-1,2.596175298E-3,1.404988952E-2,-6.108647794E-4,1.430079290E-2
3.923726670E-1,1.527161949E-4,1.038470119E-2,-6.108647794E-4,1.040377320E-2
3.945279270E-1,1.374445739E-3,9.162971750E-3,-6.108647794E-4,9.285596812E-3
3.966831880E-1,1.374445739E-3,7.941242307E-3,6.108647794E-4,8.082424528E-3
3.988384480E-1,1.374445739E-3,9.162971750E-3,-6.108647794E-4,9.285596812E-3
4.009937610E-1,1.374445739E-3,5.497782957E-3,6.108647794E-4,5.699813533E-3
4.031490210E-1,1.527161949E-4,5.497782957E-3,-6.108647794E-4,5.533723471E-3
4.053042820E-1,-2.290742937E-3,4.276053514E-3,6.108647794E-4,4.889303902E-3
4.074595420E-1,-2.290742937E-3,5.497782957E-3,-6.108647794E-4,5.987175997E-3
4.096148550E-1,-3.512472380E-3,5.497782957E-3,-6.108647794E-4,6.552574718E-3
4.117701150E-1,-4.734201822E-3,-6.108647794E-4,-6.108647794E-4,4.812377630E-3
4.139253750E-1,-2.290742937E-3,-6.108647794E-4,6.108647794E-4,2.448226861E-3
4.160806360E-1,-1.069013379E-3,4.276053514E-3,6.108647794E-4,4.449784157E-3
4.182358960E-1,-1.069013379E-3,-6.108647794E-4,-6.108647794E-4,1.374445765E-3
4.203912090E-1,2.596175298E-3,7.941242307E-3,-6.108647794E-4,8.377148163E-3
4.225464690E-1,1.527161949E-4,6.108647794E-4,-6.108647794E-4,8.772877485E-4
4.247017300E-1,1.527161949E-4,4.276053514E-3,6.108647794E-4,4.322165160E-3
4.268569900E-1,1.527161949E-4,5.497782957E-3,6.108647794E-4,5.533723471E-3
4.290123020E-1,2.596175298E-3,1.282816008E-2,-1.832594397E-3,1.321590781E-2
4.311675630E-1,1.527161949E-4,1.038470119E-2,-6.108647794E-4,1.040377320E-2
4.333228230E-1,-1.069013379E-3,6.719512399E-3,1.832594397E-3,7.046491234E-3
4.354780840E-1,-1.069013379E-3,4.276053514E-3,-1.832594397E-3,4.773450061E-3
4.376333960E-1,1.527161949E-4,5.497782957E-3,6.108647794E-4,5.533723471E-3
4.397886570E-1,-1.069013379E-3,3.054323839E-3,-6.108647794E-4,3.293150391E-3
4.419439170E-1,-3.512472380E-3,6.108647794E-4,-6.108647794E-4,3.617149952E-3
4.440991770E-1,1.527161949E-4,3.054323839E-3,-6.108647794E-4,3.118552890E-3
4.462544900E-1,-1.069013379E-3,5.497782957E-3,-6.108647794E-4,5.633965107E-3
4.484097500E-1,1.527161949E-4,4.276053514E-3,-6.108647794E-4,4.322165160E-3
4.505650110E-1,-1.069013379E-3,1.832594397E-3,-6.108647794E-4,2.207792473E-3
4.527202710E-1,-1.069013379E-3,6.108647794E-4,-6.108647794E-4,1.374445765E-3
4.548755320E-1,1.527161949E-4,4.276053514E-3,6.108647794E-4,4.322165160E-3
4.570308440E-1,-1.069013379E-3,1.832594397E-3,6.108647794E-4,2.207792473E-3
4.591861050E-1,1.527161949E-4,6.719512399E-3,-6.108647794E-4,6.748949911E-3
4.613413650E-1,-1.069013379E-3,5.497782957E-3,-6.108647794E-4,5.633965107E-3
4.634966250E-1,2.596175298E-3,5.497782957E-3,-6.108647794E-4,6.110556390E-3
4.656519380E-1,1.374445739E-3,9.162971750E-3,1.832594397E-3,9.444975098E-3
4.678071980E-1,3.817904973E-3,1.038470119E-2,1.832594397E-3,1.121502650E-2
4.699624590E-1,2.596175298E-3,9.162971750E-3,-6.108647794E-4,9.543234947E-3
4.721177190E-1,2.596175298E-3,9.162971750E-3,6.108647794E-4,9.543234947E-3
4.742730320E-1,-1.069013379E-3,7.941242307E-3,-6.108647794E-4,8.036123118E-3
4.764282920E-1,-2.290742937E-3,4.276053514E-3,-6.108647794E-4,4.889303902E-3
4.785835520E-1,-1.069013379E-3,9.162971750E-3,-6.108647794E-4,9.245322962E-3
4.807388130E-1,1.527161949E-4,6.719512399E-3,6.108647794E-4,6.748949911E-3
4.828940730E-1,-1.069013379E-3,3.054323839E-3,-6.108647794E-4,3.293150391E-3
4.850493860E-1,-3.512472380E-3,1.832594397E-3,6.108647794E-4,4.008618243E-3
4.872046460E-1,-2.290742937E-3,3.054323839E-3,-1.832594397E-3,4.234949768E-3
4.893599070E-1,-2.290742937E-3,1.832594397E-3,-6.108647794E-4,2.996508169E-3
4.915151670E-1,1.527161949E-4,-6.108647794E-4,6.108647794E-4,8.772877485E-4
4.936704800E-1,1.527161949E-4,3.054323839E-3,6.108647794E-4,3.118552890E-3
4.958257400E-1,1.527161949E-4,6.108647794E-4,6.108647794E-4,8.772877485E-4
4.979810000E-1,1.374445739E-3,4.276053514E-3,-6.108647794E-4,4.532867804E-3
5.001362610E-1,1.527161949E-4,5.497782957E-3,6.108647794E-4,5.533723471E-3
5.022915210E-1,1.527161949E-4,9.162971750E-3,-6.108647794E-4,9.184581063E-3
5.044468340E-1,2.596175298E-3,9.162971750E-3,-6.108647794E-4,9.543234947E-3
5.066020940E-1,1.527161949E-4,7.941242307E-3,6.108647794E-4,7.966166418E-3
5.087573550E-1,1.527161949E-4,6.719512399E-3,-6.108647794E-4,6.748949911E-3
5.109126150E-1,1.374445739E-3,6.719512399E-3,6.108647794E-4,6.885789988E-3
5.130678750E-1,1.527161949E-4,9.162971750E-3,-6.108647794E-4,9.184581063E-3
5.152231880E-1,-1.069013379E-3,3.054323839E-3,6.108647794E-4,3.293150391E-3
5.173784480E-1,-1.069013379E-3,4.276053514E-3,-6.108647794E-4,4.449784157E-3
5.195337090E-1,-1.069013379E-3,-6.108647794E-4,-6.108647794E-4,1.374445765E-3
5.216889690E-1,-2.290742937E-3,-1.832594397E-3,6.108647794E-4,2.996508169E-3
5.238442820E-1,-3.512472380E-3,3.054323839E-3,6.108647794E-4,4.694625876E-3
5.259995420E-1,-2.290742937E-3,5.497782957E-3,-6.108647794E-4,5.987175997E-3
5.281548020E-1,-2.290742937E-3,-6.108647794E-4,-6.108647794E-4,2.448226861E-3
5.303100630E-1,-1.069013379E-3,6.108647794E-4,-6.108647794E-4,1.374445765E-3
5.324653750E-1,1.527161949E-4,5.497782957E-3,-1.832594397E-3,5.797183963E-3
5.346206360E-1,1.374445739E-3,6.719512399E-3,6.108647794E-4,6.885789988E-3
5.367758960E-1,1.374445739E-3,4.276053514E-3,-6.108647794E-4,4.532867804E-3
5.389312090E-1,1.374445739E-3,3.054323839E-3,6.108647794E-4,3.404577945E-3
5.410864690E-1,3.817904973E-3,7.941242307E-3,-6.108647794E-4,8.832490224E-3
5.432417300E-1,2.596175298E-3,6.719512399E-3,6.108647794E-4,7.229462555E-3
5.453969900E-1,2.596175298E-3,7.941242307E-3,6.108647794E-4,8.377148163E-3
5.475522500E-1,1.374445739E-3,7.941242307E-3,-6.108647794E-4,8.082424528E-3
5.497075630E-1,1.527161949E-4,5.497782957E-3,6.108647794E-4,5.533723471E-3
5.518628230E-1,1.374445739E-3,3.054323839E-3,-6.108647794E-4,3.404577945E-3
5.540180840E-1,-1.069013379E-3,1.832594397E-3,-6.108647794E-4,2.207792473E-3
5.561733960E-1,-1.069013379E-3,3.054323839E-3,1.832594397E-3,3.718882351E-3
5.583286570E-1,-1.069013379E-3,6.108647794E-4,-6.108647794E-4,1.374445765E-3
5.604839170E-1,1.527161949E-4,4.276053514E-3,-6.108647794E-4,4.322165160E-3
5.626391770E-1,-2.290742937E-3,-1.832594397E-3,6.108647794E-4,2.996508169E-3
5.647944380E-1,1.527161949E-4,6.108647794E-4,-1.832594397E-3,1.937751335E-3
5.669496980E-1,-1.069013379E-3,1.832594397E-3,-6.108647794E-4,2.207792473E-3
5.691049590E-1,1.374445739E-3,6.108647794E-4,-6.108647794E-4,1.623395407E-3
5.712602710E-1,1.527161949E-4,1.832594397E-3,1.832594397E-3,2.596175395E-3
5.734155320E-1,2.596175298E-3,1.832594397E-3,-6.108647794E-4,3.235998174E-3
5.755707920E-1,-1.069013379E-3,1.832594397E-3,-6.108647794E-4,2.207792473E-3
5.777260520E-1,-1.069013379E-3,3.054323839E-3,6.108647794E-4,3.293150391E-3
5.798813130E-1,1.527161949E-4,4.276053514E-3,-6.108647794E-4,4.322165160E-3
5.820366250E-1,2.596175298E-3,5.497782957E-3,-6.108647794E-4,6.110556390E-3
5.841918860E-1,1.374445739E-3,4.276053514E-3,-6.108647794E-4,4.532867804E-3
5.863471460E-1,1.374445739E-3,1.832594397E-3,-6.108647794E-4,2.370792925E-3
5.885024590E-1,-1.069013379E-3,1.832594397E-3,6.108647794E-4,2.207792473E-3
5.906577190E-1,-1.069013379E-3,4.276053514E-3,1.832594397E-3,4.773450061E-3
5.928129800E-1,1.527161949E-4,6.719512399E-3,6.108647794E-4,6.748949911E-3
5.949682400E-1,1.374445739E-3,1.832594397E-3,-6.108647794E-4,2.370792925E-3
5.971235000E-1,-4.734201822E-3,-1.832594397E-3,6.108647794E-4,5.113142370E-3
5.992787610E-1,-2.290742937E-3,-6.108647794E-4,-6.108647794E-4,2.448226861E-3
6.014340730E-1,-1.069013379E-3,1.832594397E-3,6.108647794E-4,2.207792473E-3
6.035893340E-1,1.527161949E-4,3.054323839E-3,1.832594397E-3,3.565195447E-3
6.057445940E-1,-1.069013379E-3,-3.054323839E-3,6.108647794E-4,3.293150391E-3
6.078999070E-1,1.527161949E-4,1.832594397E-3,6.108647794E-4,1.937751335E-3
6.100551670E-1,1.527161949E-4,1.832594397E-3,-6.108647794E-4,1.937751335E-3
6.122104270E-1,1.374445739E-3,5.497782957E-3,-6.108647794E-4,5.699813533E-3
6.143656880E-1,1.374445739E-3,6.108647794E-4,-6.108647794E-4,1.623395407E-3
6.165210000E-1,-1.069013379E-3,5.497782957E-3,6.108647794E-4,5.633965107E-3
6.186762610E-1,1.527161949E-4,5.497782957E-3,-6.108647794E-4,5.533723471E-3
6.208315210E-1,1.374445739E-3,7.941242307E-3,-6.108647794E-4,8.082424528E-3
6.229867820E-1,1.374445739E-3,6.719512399E-3,6.108647794E-4,6.885789988E-3
6.251420940E-1,1.527161949E-4,3.054323839E-3,-6.108647794E-4,3.118552890E-3
6.272973550E-1,1.374445739E-3,1.832594397E-3,-6.108647794E-4,2.370792925E-3
6.294526150E-1,-2.290742937E-3,-6.108647794E-4,6.108647794E-4,2.448226861E-3
6.316078750E-1,1.527161949E-4,4.276053514E-3,-1.832594397E-3,4.654713537E-3
6.337631360E-1,-1.069013379E-3,6.108647794E-4,-1.832594397E-3,2.207792473E-3
6.359184480E-1,-2.290742937E-3,6.108647794E-4,-6.108647794E-4,2.448226861E-3
6.380737090E-1,-1.069013379E-3,-1.832594397E-3,-6.108647794E-4,2.207792473E-3
6.402289690E-1,1.527161949E-4,-6.108647794E-4,6.108647794E-4,8.772877485E-4
6.423842300E-1,1.527161949E-4,1.832594397E-3,-6.108647794E-4,1.937751335E-3
6.445394900E-1,-1.069013379E-3,-1.832594397E-3,-6.108647794E-4,2.207792473E-3
6.466948020E-1,1.527161949E-4,-6.108647794E-4,6.108647794E-4,8.772877485E-4
6.488500630E-1,1.527161949E-4,1.832594397E-3,6.108647794E-4,1.937751335E-3
6.510053230E-1,-1.069013379E-3,1.832594397E-3,6.108647794E-4,2.207792473E-3
6.531605840E-1,2.596175298E-3,6.719512399E-3,6.108647794E-4,7.229462555E-3
6.553158960E-1,-1.069013379E-3,-1.832594397E-3,-6.108647794E-4,2.207792473E-3
6.574711570E-1,1.374445739E-3,3.054323839E-3,-6.108647794E-4,3.404577945E-3
6.596264170E-1,2.596175298E-3,5.497782957E-3,-6.108647794E-4,6.110556390E-3
6.617816770E-1,1.374445739E-3,-6.108647794E-4,-6.108647794E-4,1.623395407E-3
6.639369900E-1,1.374445739E-3,-6.108647794E-4,6.108647794E-4,1.623395407E-3
6.660922500E-1,1.527161949E-4,-6.108647794E-4,-1.832594397E-3,1.937751335E-3
6.682475110E-1,-2.290742937E-3,-6.108647794E-4,-6.108647794E-4,2.448226861E-3
6.704027710E-1,-1.069013379E-3,-3.054323839E-3,-1.832594397E-3,3.718882351E-3
6.725580320E-1,1.527161949E-4,-6.108647794E-4,6.108647794E-4,8.772877485E-4
6.747133440E-1,1.527161949E-4,-6.108647794E-4,-6.108647794E-4,8.772877485E-4
6.768686050E-1,-1.069013379E-3,-1.832594397E-3,-6.108647794E-4,2.207792473E-3
6.790238650E-1,1.527161949E-4,6.108647794E-4,-6.108647794E-4,8.772877485E-4
6.811791250E-1,1.527161949E-4,-4.276053514E-3,6.108647794E-4,4.322165160E-3
6.833343860E-1,-2.290742937E-3,-1.832594397E-3,6.108647794E-4,2.996508169E-3
6.854896980E-1,1.527161949E-4,-6.108647794E-4,-6.108647794E-4,8.772877485E-4
6.876449590E-1,-2.290742937E-3,3.054323839E-3,-6.108647794E-4,3.866465194E-3
6.898002190E-1,1.527161949E-4,-1.832594397E-3,-6.108647794E-4,1.937751335E-3
6.919555320E-1,1.527161949E-4,6.108647794E-4,-6.108647794E-4,8.772877485E-4
6.941107920E-1,1.374445739E-3,1.832594397E-3,-6.108647794E-4,2.370792925E-3
6.962660520E-1,1.374445739E-3,4.276053514E-3,-6.108647794E-4,4.532867804E-3
6.984213130E-1,-1.069013379E-3,1.832594397E-3,6.108647794E-4,2.207792473E-3
7.005765730E-1,1.527161949E-4,1.832594397E-3,-6.108647794E-4,1.937751335E-3
7.027318860E-1,1.527161949E-4,-4.276053514E-3,-6.108647794E-4,4.322165160E-3
7.048870940E-1,1.527161949E-4,-1.832594397E-3,-6.108647794E-4,1.937751335E-3
7.070424070E-1,1.527161949E-4,-1.832594397E-3,6.108647794E-4,1.937751335E-3
7.091976670E-1,2.596175298E-3,-6.108647794E-4,-6.108647794E-4,2.736135548E-3
7.113529270E-1,1.527161949E-4,-6.108647794E-4,6.108647794E-4,8.772877485E-4
7.135082400E-1,1.374445739E-3,3.054323839E-3,-6.108647794E-4,3.404577945E-3
7.156635000E-1,1.374445739E-3,-1.832594397E-3,-1.832594397E-3,2.933582372E-3
7.178187610E-1,2.596175298E-3,-6.108647794E-4,-6.108647794E-4,2.736135548E-3
7.199740210E-1,1.527161949E-4,-6.108647794E-4,6.108647794E-4,8.772877485E-4
7.221293340E-1,1.527161949E-4,-3.054323839E-3,6.108647794E-4,3.118552890E-3
7.242845940E-1,1.374445739E-3,1.832594397E-3,-6.108647794E-4,2.370792925E-3
7.264398550E-1,1.527161949E-4,6.108647794E-4,-6.108647794E-4,8.772877485E-4
7.285951150E-1,-1.069013379E-3,-3.054323839E-3,-6.108647794E-4,3.293150391E-3
7.307503750E-1,1.374445739E-3,6.108647794E-4,-1.832594397E-3,2.370792925E-3
7.329056360E-1,1.527161949E-4,-6.108647794E-4,6.108647794E-4,8.772877485E-4
7.350609480E-1,2.596175298E-3,6.108647794E-4,6.108647794E-4,2.736135548E-3
7.372162090E-1,1.374445739E-3,-6.108647794E-4,-6.108647794E-4,1.623395407E-3
7.393714690E-1,-2.290742937E-3,-1.832594397E-3,-6.108647794E-4,2.996508169E-3
7.415267300E-1,-1.069013379E-3,6.108647794E-4,-6.108647794E-4,1.374445765E-3
7.436820420E-1,-1.069013379E-3,-6.108647794E-4,-6.108647794E-4,1.374445765E-3
7.458373020E-1,-1.069013379E-3,-6.108647794E-4,6.108647794E-4,1.374445765E-3
7.479925630E-1,-1.069013379E-3,-1.832594397E-3,-6.108647794E-4,2.207792473E-3
7.501478230E-1,-1.069013379E-3,-4.276053514E-3,-6.108647794E-4,4.449784157E-3
7.523031360E-1,-1.069013379E-3,-7.941242307E-3,-6.108647794E-4,8.036123118E-3
7.544583960E-1,-2.290742937E-3,-1.832594397E-3,6.108647794E-4,2.996508169E-3
7.566136570E-1,-1.069013379E-3,-4.276053514E-3,-6.108647794E-4,4.449784157E-3
7.587689170E-1,-1.069013379E-3,-1.832594397E-3,-6.108647794E-4,2.207792473E-3
7.609241770E-1,1.527161949E-4,-3.054323839E-3,-6.108647794E-4,3.118552890E-3
7.630794380E-1,2.596175298E-3,3.054323839E-3,6.108647794E-4,4.054895322E-3
7.652347500E-1,2.596175298E-3,6.108647794E-4,-6.108647794E-4,2.736135548E-3
7.673900110E-1,-1.069013379E-3,-3.054323839E-3,6.108647794E-4,3.293150391E-3
7.695452710E-1,1.527161949E-4,6.108647794E-4,-6.108647794E-4,8.772877485E-4
7.717005320E-1,1.374445739E-3,-6.108647794E-4,6.108647794E-4,1.623395407E-3
7.738557920E-1,1.527161949E-4,6.108647794E-4,6.108647794E-4,8.772877485E-4
7.760111050E-1,1.527161949E-4,-6.108647794E-4,6.108647794E-4,8.772877485E-4
7.781663650E-1,1.374445739E-3,-1.832594397E-3,-6.108647794E-4,2.370792925E-3
7.803216250E-1,-2.290742937E-3,-3.054323839E-3,-6.108647794E-4,3.866465194E-3
7.824769380E-1,1.527161949E-4,-4.276053514E-3,6.108647794E-4,4.322165160E-3
7.846321980E-1,1.527161949E-4,-6.108647794E-4,6.108647794E-4,8.772877485E-4
7.867874590E-1,-1.069013379E-3,-1.832594397E-3,6.108647794E-4,2.207792473E-3
7.889427190E-1,-2.290742937E-3,-5.497782957E-3,-6.108647794E-4,5.987175997E-3
7.910979800E-1,-2.290742937E-3,-1.832594397E-3,6.108647794E-4,2.996508169E-3
7.932532400E-1,-1.069013379E-3,-6.108647794E-4,6.108647794E-4,1.374445765E-3
7.954085520E-1,1.527161949E-4,-1.832594397E-3,-6.108647794E-4,1.937751335E-3
7.975638130E-1,-1.069013379E-3,-1.832594397E-3,-6.108647794E-4,2.207792473E-3
7.997190730E-1,1.374445739E-3,6.108647794E-4,-6.108647794E-4,1.623395407E-3
8.018743340E-1,1.527161949E-4,-6.108647794E-4,6.108647794E-4,8.772877485E-4
8.040295940E-1,1.374445739E-3,1.832594397E-3,6.108647794E-4,2.370792925E-3
8.061849070E-1,-2.290742937E-3,-1.832594397E-3,-6.108647794E-4,2.996508169E-3
8.083401670E-1,2.596175298E-3,-6.108647794E-4,-6.108647794E-4,2.736135548E-3
8.104954270E-1,3.817904973E-3,6.108647794E-4,-6.108647794E-4,3.914423322E-3
8.126506880E-1,1.374445739E-3,-1.832594397E-3,-6.108647794E-4,2.370792925E-3
8.148060000E-1,1.527161949E-4,-4.276053514E-3,6.108647794E-4,4.322165160E-3
8.169612610E-1,1.527161949E-4,-1.832594397E-3,6.108647794E-4,1.937751335E-3
8.191165210E-1,1.374445739E-3,-6.108647794E-4,-6.108647794E-4,1.623395407E-3
8.212717820E-1,1.527161949E-4,-5.497782957E-3,6.108647794E-4,5.533723471E-3
8.234270940E-1,1.527161949E-4,-3.054323839E-3,-6.108647794E-4,3.118552890E-3
8.255823550E-1,1.527161949E-4,-4.276053514E-3,-6.108647794E-4,4.322165160E-3
8.277376150E-1,1.527161949E-4,-4.276053514E-3,-6.108647794E-4,4.322165160E-3
8.298928750E-1,1.374445739E-3,-7.941242307E-3,-6.108647794E-4,8.082424528E-3
8.320481880E-1,1.374445739E-3,-4.276053514E-3,-6.108647794E-4,4.532867804E-3
8.342034480E-1,1.527161949E-4,-5.497782957E-3,-6.108647794E-4,5.533723471E-3
8.363587090E-1,2.596175298E-3,-3.054323839E-3,6.108647794E-4,4.054895322E-3
8.385139690E-1,-1.069013379E-3,-4.276053514E-3,6.108647794E-4,4.449784157E-3
8.406692300E-1,2.596175298E-3,-1.832594397E-3,6.108647794E-4,3.235998174E-3
8.428244900E-1,1.527161949E-4,6.108647794E-4,-6.108647794E-4,8.772877485E-4
8.449798020E-1,1.374445739E-3,6.108647794E-4,6.108647794E-4,1.623395407E-3
8.471350630E-1,1.374445739E-3,6.108647794E-4,-6.108647794E-4,1.623395407E-3
8.492903230E-1,-1.069013379E-3,-3.054323839E-3,-6.108647794E-4,3.293150391E-3
8.514455840E-1,-1.069013379E-3,-3.054323839E-3,-6.108647794E-4,3.293150391E-3
8.536008440E-1,-1.069013379E-3,-4.276053514E-3,6.108647794E-4,4.449784157E-3
8.557561570E-1,-1.069013379E-3,-4.276053514E-3,6.108647794E-4,4.449784157E-3
8.579114170E-1,1.374445739E-3,-3.054323839E-3,6.108647794E-4,3.404577945E-3
8.600666770E-1,1.374445739E-3,-3.054323839E-3,-6.108647794E-4,3.404577945E-3
8.622219380E-1,-1.069013379E-3,-5.497782957E-3,6.108647794E-4,5.633965107E-3
8.643772500E-1,1.527161949E-4,-1.832594397E-3,6.108647794E-4,1.937751335E-3
8.665325110E-1,1.374445739E-3,-3.054323839E-3,6.108647794E-4,3.404577945E-3
8.686877710E-1,-1.069013379E-3,-5.497782957E-3,-6.108647794E-4,5.633965107E-3
8.708430320E-1,-1.069013379E-3,6.108647794E-4,-6.108647794E-4,1.374445765E-3
8.729982920E-1,-1.069013379E-3,-1.832594397E-3,-6.108647794E-4,2.207792473E-3
8.751535520E-1,1.527161949E-4,-4.276053514E-3,6.108647794E-4,4.322165160E-3
8.773088650E-1,-1.069013379E-3,-3.054323839E-3,-6.108647794E-4,3.293150391E-3
8.794641250E-1,1.527161949E-4,-4.276053514E-3,-6.108647794E-4,4.322165160E-3
8.816194380E-1,-1.069013379E-3,-4.276053514E-3,6.108647794E-4,4.449784157E-3
8.837746980E-1,-1.069013379E-3,-4.276053514E-3,-6.108647794E-4,4.449784157E-3
8.859299590E-1,2.596175298E-3,-6.108647794E-4,-6.108647794E-4,2.736135548E-3
8.880852190E-1,1.527161949E-4,-3.054323839E-3,1.832594397E-3,3.565195447E-3
8.902404800E-1,1.374445739E-3,-5.497782957E-3,-6.108647794E-4,5.699813533E-3
8.923957400E-1,1.527161949E-4,-4.276053514E-3,6.108647794E-4,4.322165160E-3
8.945510520E-1,1.527161949E-4,-4.276053514E-3,6.108647794E-4,4.322165160E-3
8.967063130E-1,1.527161949E-4,-4.276053514E-3,6.108647794E-4,4.322165160E-3
8.988615730E-1,1.527161949E-4,-4.276053514E-3,6.108647794E-4,4.322165160E-3
9.010168340E-1,1.527161949E-4,-5.497782957E-3,-6.108647794E-4,5.533723471E-3
9.031721460E-1,1.527161949E-4,-5.497782957E-3,6.108647794E-4,5.533723471E-3
9.053274070E-1,1.374445739E-3,-4.276053514E-3,-6.108647794E-4,4.532867804E-3
9.074826670E-1,1.527161949E-4,-4.276053514E-3,6.108647794E-4,4.322165160E-3
9.096379270E-1,1.527161949E-4,-4.276053514E-3,-6.108647794E-4,4.322165160E-3
9.117931880E-1,2.596175298E-3,3.054323839E-3,-6.108647794E-4,4.054895322E-3
9.139484480E-1,1.374445739E-3,-1.832594397E-3,1.832594397E-3,2.933582372E-3
9.161037610E-1,1.527161949E-4,-3.054323839E-3,6.108647794E-4,3.118552890E-3
9.182590210E-1,-1.069013379E-3,-6.108647794E-4,6.108647794E-4,1.374445765E-3
9.204142820E-1,-2.290742937E-3,-5.497782957E-3,6.108647794E-4,5.987175997E-3
9.225695420E-1,1.527161949E-4,1.832594397E-3,-6.108647794E-4,1.937751335E-3
9.247248550E-1,-1.069013379E-3,-1.832594397E-3,6.108647794E-4,2.207792473E-3
9.268800630E-1,-3.512472380E-3,-4.276053514E-3,6.108647794E-4,5.567337933E-3
9.290353750E-1,-2.290742937E-3,-1.038470119E-2,-6.108647794E-4,1.065188612E-2
9.311906360E-1,-1.069013379E-3,-4.276053514E-3,-6.108647794E-4,4.449784157E-3
9.333458960E-1,-1.069013379E-3,-3.054323839E-3,6.108647794E-4,3.293150391E-3
9.355012090E-1,-1.069013379E-3,-4.276053514E-3,6.108647794E-4,4.449784157E-3
9.376564690E-1,-2.290742937E-3,-6.719512399E-3,-6.108647794E-4,7.125482852E-3
9.398117300E-1,1.374445739E-3,-4.276053514E-3,6.108647794E-4,4.532867804E-3
9.419669900E-1,1.527161949E-4,-4.276053514E-3,6.108647794E-4,4.322165160E-3
9.441222500E-1,-2.290742937E-3,-5.497782957E-3,6.108647794E-4,5.987175997E-3
9.462775110E-1,-2.290742937E-3,-6.719512399E-3,-6.108647794E-4,7.125482852E-3
9.484328230E-1,1.527161949E-4,-1.832594397E-3,-6.108647794E-4,1.937751335E-3
9.505880840E-1,1.527161949E-4,-6.108647794E-4,-1.832594397E-3,1.937751335E-3
9.527433440E-1,1.527161949E-4,-4.276053514E-3,-6.108647794E-4,4.322165160E-3
9.548986050E-1,1.374445739E-3,6.108647794E-4,6.108647794E-4,1.623395407E-3
9.570538650E-1,1.527161949E-4,-1.832594397E-3,6.108647794E-4,1.937751335E-3
9.592091770E-1,-2.290742937E-3,-5.497782957E-3,6.108647794E-4,5.987175997E-3
9.613644380E-1,1.527161949E-4,-6.108647794E-4,-6.108647794E-4,8.772877485E-4
9.635196980E-1,-1.069013379E-3,-1.832594397E-3,-6.108647794E-4,2.207792473E-3
9.656749590E-1,1.527161949E-4,-6.108647794E-4,-6.108647794E-4,8.772877485E-4
9.678302190E-1,-2.290742937E-3,-3.054323839E-3,6.108647794E-4,3.866465194E-3
9.699855320E-1,-1.069013379E-3,-7.941242307E-3,6.108647794E-4,8.036123118E-3
9.721407920E-1,1.527161949E-4,-4.276053514E-3,6.108647794E-4,4.322165160E-3
9.742960520E-1,1.527161949E-4,-6.108647794E-4,6.108647794E-4,8.772877485E-4
9.764513650E-1,-1.069013379E-3,-3.054323839E-3,-6.108647794E-4,3.293150391E-3
9.786065730E-1,2.596175298E-3,1.832594397E-3,-6.108647794E-4,3.235998174E-3
9.807618860E-1,1.374445739E-3,-4.276053514E-3,-6.108647794E-4,4.532867804E-3
9.829171460E-1,-1.069013379E-3,-5.497782957E-3,-6.108647794E-4,5.633965107E-3
9.850724070E-1,1.527161949E-4,-6.719512399E-3,6.108647794E-4,6.748949911E-3
9.872276670E-1,3.817904973E-3,6.108647794E-4,-6.108647794E-4,3.914423322E-3
9.893829800E-1,1.527161949E-4,-4.276053514E-3,-6.108647794E-4,4.322165160E-3
9.915382400E-1,1.374445739E-3,-1.832594397E-3,6.108647794E-4,2.370792925E-3
9.936935000E-1,1.527161949E-4,-4.276053514E-3,-6.108647794E-4,4.322165160E-3
9.958488130E-1,1.374445739E-3,1.832594397E-3,1.832594397E-3,2.933582372E-3
9.980040210E-1,1.527161949E-4,-6.108647794E-4,-6.108647794E-4,8.772877485E-4
1.000159334E0,1.527161949E-4,-4.276053514E-3,6.108647794E-4,4.322165160E-3
1.002314594E0,1.527161949E-4,-1.832594397E-3,-6.108647794E-4,1.937751335E-3
1.004469855E0,1.527161949E-4,-3.054323839E-3,6.108647794E-4,3.118552890E-3
1.006625115E0,1.527161949E-4,-1.832594397E-3,6.108647794E-4,1.937751335E-3
1.008780427E0,-1.069013379E-3,-4.276053514E-3,-6.108647794E-4,4.449784157E-3
1.010935688E0,-1.069013379E-3,-3.054323839E-3,-6.108647794E-4,3.293150391E-3
1.013090948E0,-1.069013379E-3,-6.719512399E-3,-6.108647794E-4,6.831382896E-3
1.015246209E0,-3.512472380E-3,-5.497782957E-3,6.108647794E-4,6.552574718E-3
1.017401469E0,1.527161949E-4,-4.276053514E-3,6.108647794E-4,4.322165160E-3
1.019556782E0,1.374445739E-3,-1.160643063E-2,-6.108647794E-4,1.170348192E-2
1.021712042E0,1.374445739E-3,-7.941242307E-3,-1.832594397E-3,8.265036763E-3
1.023867302E0,1.527161949E-4,-3.054323839E-3,-6.108647794E-4,3.118552890E-3
1.026022563E0,1.374445739E-3,-3.054323839E-3,6.108647794E-4,3.404577945E-3
1.028177823E0,-2.290742937E-3,-7.941242307E-3,-6.108647794E-4,8.287580369E-3
1.030333084E0,1.527161949E-4,-4.276053514E-3,-6.108647794E-4,4.322165160E-3
1.032488396E0,1.527161949E-4,-1.832594397E-3,6.108647794E-4,1.937751335E-3
1.034643657E0,1.527161949E-4,-1.832594397E-3,-6.108647794E-4,1.937751335E-3
1.036798917E0,-1.069013379E-3,-3.054323839E-3,-1.832594397E-3,3.718882351E-3
1.038954230E0,1.527161949E-4,-4.276053514E-3,6.108647794E-4,4.322165160E-3
1.041109490E0,1.374445739E-3,6.108647794E-4,-6.108647794E-4,1.623395407E-3
1.043264750E0,-1.069013379E-3,-3.054323839E-3,6.108647794E-4,3.293150391E-3
1.045420011E0,1.527161949E-4,1.832594397E-3,6.108647794E-4,1.937751335E-3
1.047575271E0,-1.069013379E-3,-6.108647794E-4,-6.108647794E-4,1.374445765E-3
1.049730532E0,-1.069013379E-3,-1.832594397E-3,6.108647794E-4,2.207792473E-3
1.051885792E0,-1.069013379E-3,-4.276053514E-3,-6.108647794E-4,4.449784157E-3
1.054041105E0,-1.069013379E-3,-1.832594397E-3,1.832594397E-3,2.803496754E-3
1.056196365E0,1.527161949E-4,6.108647794E-4,6.108647794E-4,8.772877485E-4
1.058351625E0,1.527161949E-4,6.108647794E-4,6.108647794E-4,8.772877485E-4
1.060506938E0,1.527161949E-4,6.108647794E-4,-6.108647794E-4,8.772877485E-4
1.062662198E0,1.374445739E-3,5.497782957E-3,-1.832594397E-3,5.955931560E-3
1.064817459E0,1.374445739E-3,1.832594397E-3,-6.108647794E-4,2.370792925E-3
1.066972719E0,1.527161949E-4,-3.054323839E-3,6.108647794E-4,3.118552890E-3
1.069127980E0,1.374445739E-3,6.108647794E-4,-6.108647794E-4,1.623395407E-3
1.071283292E0,1.374445739E-3,-6.108647794E-4,-6.108647794E-4,1.623395407E-3
1.073438552E0,1.527161949E-4,-1.832594397E-3,6.108647794E-4,1.937751335E-3
1.075593813E0,-1.069013379E-3,-3.054323839E-3,-6.108647794E-4,3.293150391E-3
1.077749073E0,-1.069013379E-3,-4.276053514E-3,-6.108647794E-4,4.449784157E-3
1.079904334E0,1.527161949E-4,-1.832594397E-3,-6.108647794E-4,1.937751335E-3
1.082059594E0,1.374445739E-3,-1.832594397E-3,-6.108647794E-4,2.370792925E-3
1.084214855E0,1.374445739E-3,1.832594397E-3,-6.108647794E-4,2.370792925E-3
1.086370167E0,-2.290742937E-3,-4.276053514E-3,6.108647794E-4,4.889303902E-3
1.088525427E0,1.527161949E-4,-5.497782957E-3,-6.108647794E-4,5.533723471E-3
1.090680688E0,1.527161949E-4,-1.832594397E-3,-6.108647794E-4,1.937751335E-3
1.092835948E0,1.527161949E-4,-6.108647794E-4,6.108647794E-4,8.772877485E-4
1.094991261E0,1.527161949E-4,6.108647794E-4,-6.108647794E-4,8.772877485E-4
1.097146521E0,2.596175298E-3,1.832594397E-3,-6.108647794E-4,3.235998174E-3
1.099301782E0,1.374445739E-3,-1.832594397E-3,-6.108647794E-4,2.370792925E-3
1.101457042E0,-1.069013379E-3,-6.108647794E-4,-6.108647794E-4,1.374445765E-3
1.103612302E0,-1.069013379E-3,-3.054323839E-3,-6.108647794E-4,3.293150391E-3
1.105767615E0,-2.290742937E-3,6.108647794E-4,-6.108647794E-4,2.448226861E-3
1.107922875E0,-1.069013379E-3,-6.108647794E-4,6.108647794E-4,1.374445765E-3
1.110078136E0,1.374445739E-3,3.054323839E-3,6.108647794E-4,3.404577945E-3
1.112233396E0,1.527161949E-4,-1.832594397E-3,6.108647794E-4,1.937751335E-3
1.114388657E0,1.374445739E-3,-6.108647794E-4,-6.108647794E-4,1.623395407E-3
1.116543917E0,1.527161949E-4,-3.054323839E-3,6.108647794E-4,3.118552890E-3
1.118699230E0,-2.290742937E-3,-6.108647794E-4,6.108647794E-4,2.448226861E-3
1.120854490E0,-1.069013379E-3,1.832594397E-3,-6.108647794E-4,2.207792473E-3
1.123009750E0,1.374445739E-3,1.832594397E-3,6.108647794E-4,2.370792925E-3
1.125165063E0,2.596175298E-3,6.108647794E-4,-6.108647794E-4,2.736135548E-3
1.127320323E0,1.374445739E-3,-6.108647794E-4,-6.108647794E-4,1.623395407E-3
1.129475584E0,2.596175298E-3,3.054323839E-3,-6.108647794E-4,4.054895322E-3
1.131630844E0,1.527161949E-4,1.832594397E-3,6.108647794E-4,1.937751335E-3
1.133786105E0,1.374445739E-3,6.108647794E-4,6.108647794E-4,1.623395407E-3
1.135941365E0,-2.290742937E-3,-6.108647794E-4,-6.108647794E-4,2.448226861E-3
1.138096625E0,-2.290742937E-3,-1.832594397E-3,-6.108647794E-4,2.996508169E-3
1.140251938E0,1.527161949E-4,6.108647794E-4,-6.108647794E-4,8.772877485E-4
1.142407198E0,1.374445739E-3,1.832594397E-3,-6.108647794E-4,2.370792925E-3
1.144562459E0,-1.069013379E-3,-6.108647794E-4,-6.108647794E-4,1.374445765E-3
1.146717719E0,1.374445739E-3,1.832594397E-3,6.108647794E-4,2.370792925E-3
1.148872980E0,1.527161949E-4,6.108647794E-4,6.108647794E-4,8.772877485E-4
1.151028292E0,1.527161949E-4,1.832594397E-3,-6.108647794E-4,1.937751335E-3
1.153183552E0,-1.069013379E-3,-3.054323839E-3,-6.108647794E-4,3.293150391E-3
1.155338813E0,1.527161949E-4,1.832594397E-3,-6.108647794E-4,1.937751335E-3
1.157494073E0,1.374445739E-3,6.108647794E-4,-6.108647794E-4,1.623395407E-3
1.159649334E0,-1.069013379E-3,-1.832594397E-3,1.832594397E-3,2.803496754E-3
1.161804646E0,1.527161949E-4,-4.276053514E-3,6.108647794E-4,4.322165160E-3
1.163959907E0,1.527161949E-4,6.108647794E-4,-6.108647794E-4,8.772877485E-4
1.166115167E0,-1.069013379E-3,6.108647794E-4,-6.108647794E-4,1.374445765E-3
1.168270427E0,1.374445739E-3,4.276053514E-3,-6.108647794E-4,4.532867804E-3
1.170425688E0,-1.069013379E-3,-6.108647794E-4,-6.108647794E-4,1.374445765E-3
1.172581000E0,-1.069013379E-3,6.108647794E-4,-6.108647794E-4,1.374445765E-3
1.174736261E0,1.527161949E-4,1.832594397E-3,-6.108647794E-4,1.937751335E-3
1.176891521E0,1.374445739E-3,1.832594397E-3,-6.108647794E-4,2.370792925E-3
1.179046782E0,-1.069013379E-3,-4.276053514E-3,6.108647794E-4,4.449784157E-3
1.181202042E0,-1.069013379E-3,6.108647794E-4,6.108647794E-4,1.374445765E-3
1.183357355E0,-1.069013379E-3,6.108647794E-4,-6.108647794E-4,1.374445765E-3
1.185512615E0,1.527161949E-4,3.054323839E-3,-6.108647794E-4,3.118552890E-3
1.187667875E0,1.527161949E-4,1.832594397E-3,-6.108647794E-4,1.937751335E-3
1.189823136E0,-1.069013379E-3,1.832594397E-3,6.108647794E-4,2.207792473E-3
1.191978448E0,1.374445739E-3,3.054323839E-3,6.108647794E-4,3.404577945E-3
1.194133709E0,-1.069013379E-3,6.108647794E-4,-1.832594397E-3,2.207792473E-3
1.196288969E0,1.527161949E-4,6.108647794E-4,6.108647794E-4,8.772877485E-4
1.198444230E0,1.527161949E-4,-1.832594397E-3,-6.108647794E-4,1.937751335E-3
1.200599490E0,-1.069013379E-3,6.108647794E-4,-6.108647794E-4,1.374445765E-3
1.202754750E0,1.527161949E-4,-6.108647794E-4,6.108647794E-4,8.772877485E-4
1.204910063E0,1.527161949E-4,-1.832594397E-3,6.108647794E-4,1.937751335E-3
1.207065323E0,2.596175298E-3,4.276053514E-3,-6.108647794E-4,5.039634472E-3
1.209220584E0,-1.069013379E-3,1.832594397E-3,6.108647794E-4,2.207792473E-3
1.211375844E0,1.527161949E-4,1.832594397E-3,6.108647794E-4,1.937751335E-3
1.213531105E0,1.527161949E-4,1.832594397E-3,-1.832594397E-3,2.596175395E-3
1.215686417E0,-1.069013379E-3,-6.108647794E-4,6.108647794E-4,1.374445765E-3
1.217841677E0,-1.069013379E-3,-6.108647794E-4,-6.108647794E-4,1.374445765E-3
1.219996938E0,-2.290742937E-3,-6.108647794E-4,-6.108647794E-4,2.448226861E-3
1.222152198E0,1.527161949E-4,6.108647794E-4,-1.832594397E-3,1.937751335E-3
1.224307459E0,1.527161949E-4,4.276053514E-3,-6.108647794E-4,4.322165160E-3
1.226462719E0,-2.290742937E-3,6.108647794E-4,-6.108647794E-4,2.448226861E-3
1.228618032E0,2.596175298E-3,4.276053514E-3,6.108647794E-4,5.039634472E-3
1.230773292E0,-1.069013379E-3,-1.832594397E-3,6.108647794E-4,2.207792473E-3
1.232928552E0,1.527161949E-4,6.108647794E-4,6.108647794E-4,8.772877485E-4
1.235083813E0,1.374445739E-3,1.832594397E-3,-6.108647794E-4,2.370792925E-3
1.237239073E0,1.374445739E-3,4.276053514E-3,6.108647794E-4,4.532867804E-3
1.239394386E0,1.374445739E-3,3.054323839E-3,-6.108647794E-4,3.404577945E-3
1.241549646E0,1.527161949E-4,1.832594397E-3,-6.108647794E-4,1.937751335E-3
1.243704907E0,-1.069013379E-3,1.832594397E-3,6.108647794E-4,2.207792473E-3
1.245860167E0,1.527161949E-4,6.108647794E-4,-6.108647794E-4,8.772877485E-4
1.248015480E0,1.374445739E-3,3.054323839E-3,-6.108647794E-4,3.404577945E-3
1.250170740E0,-1.069013379E-3,1.832594397E-3,6.108647794E-4,2.207792473E-3
1.252326000E0,-1.069013379E-3,-6.108647794E-4,6.108647794E-4,1.374445765E-3
1.254481261E0,1.527161949E-4,-6.108647794E-4,6.108647794E-4,8.772877485E-4
1.256636521E0,1.527161949E-4,1.832594397E-3,-6.108647794E-4,1.937751335E-3
1.258791782E0,-1.069013379E-3,1.832594397E-3,-6.108647794E-4,2.207792473E-3
1.260947042E0,1.527161949E-4,-6.108647794E-4,6.108647794E-4,8.772877485E-4
1.263102355E0,-2.290742937E-3,6.108647794E-4,6.108647794E-4,2.448226861E-3
1.265257615E0,1.527161949E-4,-6.108647794E-4,6.108647794E-4,8.772877485E-4
1.267412875E0,1.527161949E-4,-1.832594397E-3,6.108647794E-4,1.937751335E-3
1.269568136E0,1.527161949E-4,3.054323839E-3,-1.832594397E-3,3.565195447E-3
1.271723448E0,1.527161949E-4,-6.108647794E-4,-1.832594397E-3,1.937751335E-3
1.273878709E0,-1.069013379E-3,6.108647794E-4,-6.108647794E-4,1.374445765E-3
1.276033969E0,-2.290742937E-3,6.108647794E-4,-6.108647794E-4,2.448226861E-3
1.278189230E0,1.374445739E-3,4.276053514E-3,-6.108647794E-4,4.532867804E-3
1.280344490E0,-1.069013379E-3,6.108647794E-4,-6.108647794E-4,1.374445765E-3
1.282499802E0,-1.069013379E-3,3.054323839E-3,-6.108647794E-4,3.293150391E-3
1.284655011E0,-1.069013379E-3,1.832594397E-3,6.108647794E-4,2.207792473E-3
1.286810323E0,-1.069013379E-3,6.108647794E-4,-6.108647794E-4,1.374445765E-3
1.288965584E0,-1.069013379E-3,3.054323839E-3,-6.108647794E-4,3.293150391E-3
1.291120844E0,1.527161949E-4,3.054323839E-3,-6.108647794E-4,3.118552890E-3
1.293276157E0,1.374445739E-3,1.832594397E-3,6.108647794E-4,2.370792925E-3
1.295431417E0,1.527161949E-4,9.162971750E-3,-6.108647794E-4,9.184581063E-3
1.297586677E0,2.596175298E-3,3.054323839E-3,-6.108647794E-4,4.054895322E-3
1.299741938E0,-1.069013379E-3,1.832594397E-3,6.108647794E-4,2.207792473E-3
1.301897198E0,1.527161949E-4,-6.108647794E-4,6.108647794E-4,8.772877485E-4
1.304052459E0,-1.069013379E-3,6.108647794E-4,6.108647794E-4,1.374445765E-3
1.306207719E0,1.374445739E-3,3.054323839E-3,-6.108647794E-4,3.404577945E-3
1.308362980E0,1.527161949E-4,3.054323839E-3,1.832594397E-3,3.565195447E-3
1.310518292E0,1.527161949E-4,5.497782957E-3,-6.108647794E-4,5.533723471E-3
1.312673552E0,-1.069013379E-3,6.108647794E-4,6.108647794E-4,1.374445765E-3
1.314828813E0,3.817904973E-3,7.941242307E-3,1.832594397E-3,8.999896110E-3
1.316984125E0,-1.069013379E-3,6.108647794E-4,1.832594397E-3,2.207792473E-3
1.319139386E0,1.527161949E-4,3.054323839E-3,-6.108647794E-4,3.118552890E-3
1.321294646E0,2.596175298E-3,5.497782957E-3,-6.108647794E-4,6.110556390E-3
1.323449907E0,1.374445739E-3,3.054323839E-3,6.108647794E-4,3.404577945E-3
1.325605167E0,-1.069013379E-3,3.054323839E-3,-6.108647794E-4,3.293150391E-3
1.327760480E0,1.527161949E-4,-1.832594397E-3,-6.108647794E-4,1.937751335E-3
1.329915688E0,-1.069013379E-3,-6.108647794E-4,-6.108647794E-4,1.374445765E-3
1.332071000E0,1.527161949E-4,6.108647794E-4,-6.108647794E-4,8.772877485E-4
1.334226261E0,-2.290742937E-3,1.832594397E-3,-6.108647794E-4,2.996508169E-3
1.336381521E0,-1.069013379E-3,1.832594397E-3,1.832594397E-3,2.803496754E-3
1.338536782E0,-1.069013379E-3,3.054323839E-3,6.108647794E-4,3.293150391E-3
1.340692094E0,-1.069013379E-3,1.832594397E-3,6.108647794E-4,2.207792473E-3
1.342847302E0,2.596175298E-3,6.108647794E-4,-6.108647794E-4,2.736135548E-3
1.345002615E0,1.374445739E-3,1.832594397E-3,6.108647794E-4,2.370792925E-3
1.347157875E0,1.527161949E-4,6.108647794E-4,-6.108647794E-4,8.772877485E-4
1.349313136E0,1.527161949E-4,1.832594397E-3,6.108647794E-4,1.937751335E-3
1.351468396E0,-1.069013379E-3,1.832594397E-3,6.108647794E-4,2.207792473E-3
1.353623709E0,2.596175298E-3,6.719512399E-3,-6.108647794E-4,7.229462555E-3
1.355778969E0,-2.290742937E-3,6.108647794E-4,-6.108647794E-4,2.448226861E-3
1.357934230E0,1.527161949E-4,6.108647794E-4,6.108647794E-4,8.772877485E-4
1.360089490E0,-1.069013379E-3,6.108647794E-4,-6.108647794E-4,1.374445765E-3
1.362244750E0,-2.290742937E-3,-1.832594397E-3,-6.108647794E-4,2.996508169E-3
1.364400063E0,1.527161949E-4,4.276053514E-3,6.108647794E-4,4.322165160E-3
1.366555271E0,1.527161949E-4,4.276053514E-3,-6.108647794E-4,4.322165160E-3
1.368710584E0,1.374445739E-3,3.054323839E-3,6.108647794E-4,3.404577945E-3
1.370865844E0,1.527161949E-4,1.832594397E-3,6.108647794E-4,1.937751335E-3
1.373021105E0,1.527161949E-4,-6.108647794E-4,6.108647794E-4,8.772877485E-4
1.375176365E0,1.527161949E-4,4.276053514E-3,-6.108647794E-4,4.322165160E-3
1.377331625E0,-1.069013379E-3,5.497782957E-3,6.108647794E-4,5.633965107E-3
1.379486938E0,1.527161949E-4,5.497782957E-3,-6.108647794E-4,5.533723471E-3
1.381642198E0,-1.069013379E-3,3.054323839E-3,6.108647794E-4,3.293150391E-3
1.383797459E0,1.527161949E-4,3.054323839E-3,6.108647794E-4,3.118552890E-3
1.385952719E0,1.527161949E-4,3.054323839E-3,6.108647794E-4,3.118552890E-3
1.388107980E0,1.374445739E-3,4.276053514E-3,-6.108647794E-4,4.532867804E-3
1.390263292E0,-1.069013379E-3,3.054323839E-3,6.108647794E-4,3.293150391E-3
1.392418552E0,1.374445739E-3,3.054323839E-3,-6.108647794E-4,3.404577945E-3
1.394573813E0,2.596175298E-3,6.719512399E-3,-6.108647794E-4,7.229462555E-3
1.396729073E0,1.527161949E-4,6.719512399E-3,-6.108647794E-4,6.748949911E-3
1.398884334E0,1.374445739E-3,4.276053514E-3,6.108647794E-4,4.532867804E-3
1.401039594E0,1.374445739E-3,4.276053514E-3,6.108647794E-4,4.532867804E-3
1.403194907E0,1.527161949E-4,3.054323839E-3,6.108647794E-4,3.118552890E-3
1.405350167E0,-1.069013379E-3,4.276053514E-3,-6.108647794E-4,4.449784157E-3
1.407505427E0,1.527161949E-4,3.054323839E-3,-6.108647794E-4,3.118552890E-3
1.409660688E0,1.374445739E-3,5.497782957E-3,-1.832594397E-3,5.955931560E-3
1.411815948E0,-1.069013379E-3,1.832594397E-3,-6.108647794E-4,2.207792473E-3
1.413971209E0,1.527161949E-4,1.832594397E-3,6.108647794E-4,1.937751335E-3
1.416126521E0,-2.290742937E-3,1.832594397E-3,-6.108647794E-4,2.996508169E-3
1.418281782E0,1.374445739E-3,4.276053514E-3,-6.108647794E-4,4.532867804E-3
1.420437042E0,1.527161949E-4,6.108647794E-4,-1.832594397E-3,1.937751335E-3
1.422592302E0,1.374445739E-3,3.054323839E-3,6.108647794E-4,3.404577945E-3
1.424747615E0,1.527161949E-4,3.054323839E-3,6.108647794E-4,3.118552890E-3
1.426902823E0,-1.069013379E-3,1.832594397E-3,-6.108647794E-4,2.207792473E-3
1.429058136E0,1.527161949E-4,-6.108647794E-4,-6.108647794E-4,8.772877485E-4
1.431213396E0,1.527161949E-4,6.108647794E-4,6.108647794E-4,8.772877485E-4
1.433368657E0,1.527161949E-4,6.108647794E-4,6.108647794E-4,8.772877485E-4
1.435523917E0,1.527161949E-4,-6.108647794E-4,-6.108647794E-4,8.772877485E-4
1.437679177E0,1.527161949E-4,3.054323839E-3,6.108647794E-4,3.118552890E-3
1.439834438E0,-1.069013379E-3,-1.832594397E-3,-6.108647794E-4,2.207792473E-3
1.441989750E0,-1.069013379E-3,4.276053514E-3,-6.108647794E-4,4.449784157E-3
1.444145011E0,1.374445739E-3,6.719512399E-3,-6.108647794E-4,6.885789988E-3
1.446300271E0,1.374445739E-3,6.719512399E-3,-1.832594397E-3,7.099249974E-3
1.448455532E0,1.527161949E-4,3.054323839E-3,6.108647794E-4,3.118552890E-3
1.450610844E0,-2.290742937E-3,3.054323839E-3,6.108647794E-4,3.866465194E-3
1.452766052E0,2.596175298E-3,5.497782957E-3,-6.108647794E-4,6.110556390E-3
1.454921365E0,1.374445739E-3,3.054323839E-3,-1.832594397E-3,3.817904848E-3
1.457076625E0,1.374445739E-3,4.276053514E-3,-6.108647794E-4,4.532867804E-3
1.459231886E0,1.527161949E-4,3.054323839E-3,-6.108647794E-4,3.118552890E-3
1.461387198E0,-2.290742937E-3,1.832594397E-3,6.108647794E-4,2.996508169E-3
1.463542407E0,1.527161949E-4,6.108647794E-4,6.108647794E-4,8.772877485E-4
1.465697719E0,1.374445739E-3,1.832594397E-3,1.832594397E-3,2.933582372E-3
1.467852980E0,1.527161949E-4,6.108647794E-4,-6.108647794E-4,8.772877485E-4
1.470008240E0,2.596175298E-3,6.719512399E-3,-6.108647794E-4,7.229462555E-3
1.472163500E0,1.527161949E-4,1.832594397E-3,-6.108647794E-4,1.937751335E-3
1.474318813E0,1.374445739E-3,1.832594397E-3,-6.108647794E-4,2.370792925E-3
1.476474073E0,1.374445739E-3,1.832594397E-3,6.108647794E-4,2.370792925E-3
1.478629334E0,-2.290742937E-3,-3.054323839E-3,6.108647794E-4,3.866465194E-3
1.480784594E0,1.527161949E-4,3.054323839E-3,6.108647794E-4,3.118552890E-3
1.482939855E0,1.527161949E-4,3.054323839E-3,6.108647794E-4,3.118552890E-3
1.485095115E0,1.527161949E-4,-1.832594397E-3,-6.108647794E-4,1.937751335E-3
1.487250375E0,1.527161949E-4,6.108647794E-4,-6.108647794E-4,8.772877485E-4
1.489405688E0,-1.069013379E-3,6.108647794E-4,-6.108647794E-4,1.374445765E-3
1.491560948E0,1.374445739E-3,1.832594397E-3,6.108647794E-4,2.370792925E-3
1.493716209E0,1.527161949E-4,1.832594397E-3,6.108647794E-4,1.937751335E-3
1.495871469E0,-1.069013379E-3,-6.108647794E-4,6.108647794E-4,1.374445765E-3
1.498026730E0,-1.069013379E-3,6.108647794E-4,-6.108647794E-4,1.374445765E-3
1.500181990E0,1.374445739E-3,6.108647794E-4,-6.108647794E-4,1.623395407E-3
1.502337302E0,-1.069013379E-3,3.054323839E-3,-6.108647794E-4,3.293150391E-3
1.504492563E0,1.527161949E-4,5.497782957E-3,-6.108647794E-4,5.533723471E-3
1.506647823E0,1.527161949E-4,-1.832594397E-3,-6.108647794E-4,1.937751335E-3
1.508803084E0,1.527161949E-4,6.108647794E-4,6.108647794E-4,8.772877485E-4
1.510958344E0,1.527161949E-4,-6.108647794E-4,6.108647794E-4,8.772877485E-4
1.513113657E0,1.527161949E-4,-6.108647794E-4,-6.108647794E-4,8.772877485E-4
1.515268917E0,1.374445739E-3,1.832594397E-3,6.108647794E-4,2.370792925E-3
1.517424177E0,1.527161949E-4,-6.108647794E-4,-6.108647794E-4,8.772877485E-4
1.519579438E0,-1.069013379E-3,-6.108647794E-4,6.108647794E-4,1.374445765E-3
1.521734698E0,1.374445739E-3,4.276053514E-3,1.832594397E-3,4.850993400E-3
1.523889959E0,1.374445739E-3,3.054323839E-3,6.108647794E-4,3.404577945E-3
1.526045271E0,-1.069013379E-3,-1.832594397E-3,-6.108647794E-4,2.207792473E-3
1.528200532E0,1.374445739E-3,4.276053514E-3,6.108647794E-4,4.532867804E-3
1.530355792E0,1.374445739E-3,-6.108647794E-4,6.108647794E-4,1.623395407E-3
1.532511105E0,1.527161949E-4,-6.108647794E-4,-6.108647794E-4,8.772877485E-4
1.534666313E0,1.527161949E-4,-6.108647794E-4,6.108647794E-4,8.772877485E-4
1.536821625E0,1.527161949E-4,-6.108647794E-4,-6.108647794E-4,8.772877485E-4
1.538976886E0,1.527161949E-4,-1.832594397E-3,-6.108647794E-4,1.937751335E-3
1.541132146E0,1.374445739E-3,4.276053514E-3,-6.108647794E-4,4.532867804E-3
1.543287407E0,-1.069013379E-3,1.832594397E-3,6.108647794E-4,2.207792473E-3
1.545442667E0,1.527161949E-4,-1.832594397E-3,-6.108647794E-4,1.937751335E-3
1.547597980E0,1.374445739E-3,6.108647794E-4,-1.832594397E-3,2.370792925E-3
1.549753240E0,1.527161949E-4,1.832594397E-3,-6.108647794E-4,1.937751335E-3
1.551908500E0,-1.069013379E-3,6.108647794E-4,6.108647794E-4,1.374445765E-3
1.554063761E0,1.527161949E-4,1.832594397E-3,-6.108647794E-4,1.937751335E-3
1.556219021E0,-1.069013379E-3,1.832594397E-3,6.108647794E-4,2.207792473E-3
1.558374282E0,1.527161949E-4,1.832594397E-3,-6.108647794E-4,1.937751335E-3
1.560529542E0,1.374445739E-3,1.832594397E-3,-6.108647794E-4,2.370792925E-3
1.562684855E0,1.527161949E-4,4.276053514E-3,-6.108647794E-4,4.322165160E-3
1.564840115E0,1.527161949E-4,3.054323839E-3,-6.108647794E-4,3.118552890E-3
1.566995375E0,1.374445739E-3,-6.108647794E-4,-6.108647794E-4,1.623395407E-3
1.569150636E0,-1.069013379E-3,6.108647794E-4,-6.108647794E-4,1.374445765E-3
1.571305896E0,-2.290742937E-3,1.832594397E-3,-1.832594397E-3,3.458946032E-3
1.573461209E0,1.527161949E-4,6.108647794E-4,-6.108647794E-4,8.772877485E-4
1.575616469E0,1.527161949E-4,1.832594397E-3,-6.108647794E-4,1.937751335E-3
1.577771730E0,1.374445739E-3,1.832594397E-3,-6.108647794E-4,2.370792925E-3
1.579926990E0,1.374445739E-3,1.832594397E-3,6.108647794E-4,2.370792925E-3
1.582082250E0,1.527161949E-4,-6.108647794E-4,6.108647794E-4,8.772877485E-4
1.584237511E0,-1.069013379E-3,-6.108647794E-4,-6.108647794E-4,1.374445765E-3
1.586392823E0,1.527161949E-4,1.832594397E-3,-6.108647794E-4,1.937751335E-3
1.588548084E0,1.374445739E-3,-4.276053514E-3,-6.108647794E-4,4.532867804E-3
1.590703344E0,1.527161949E-4,6.108647794E-4,-6.108647794E-4,8.772877485E-4
1.592858605E0,-1.069013379E-3,-1.832594397E-3,6.108647794E-4,2.207792473E-3
1.595013917E0,1.527161949E-4,-5.497782957E-3,-6.108647794E-4,5.533723471E-3
1.597169125E0,1.527161949E-4,6.108647794E-4,-6.108647794E-4,8.772877485E-4
1.599324438E0,1.374445739E-3,6.108647794E-4,-6.108647794E-4,1.623395407E-3
1.601479698E0,1.527161949E-4,6.108647794E-4,6.108647794E-4,8.772877485E-4
1.603634959E0,1.527161949E-4,-6.108647794E-4,6.108647794E-4,8.772877485E-4
1.605790219E0,-1.069013379E-3,6.108647794E-4,6.108647794E-4,1.374445765E-3
1.607945480E0,1.527161949E-4,-1.832594397E-3,-1.832594397E-3,2.596175395E-3
1.610100740E0,1.527161949E-4,-6.108647794E-4,6.108647794E-4,8.772877485E-4
1.612256052E0,1.527161949E-4,-6.108647794E-4,6.108647794E-4,8.772877485E-4
1.614411313E0,-1.069013379E-3,-6.108647794E-4,-6.108647794E-4,1.374445765E-3
1.616566573E0,1.374445739E-3,5.497782957E-3,-6.108647794E-4,5.699813533E-3
1.618721834E0,1.527161949E-4,-3.054323839E-3,-6.108647794E-4,3.118552890E-3
1.620877094E0,1.527161949E-4,-1.832594397E-3,6.108647794E-4,1.937751335E-3
1.623032355E0,1.527161949E-4,-4.276053514E-3,6.108647794E-4,4.322165160E-3
1.625187667E0,-1.069013379E-3,-1.832594397E-3,6.108647794E-4,2.207792473E-3
1.627342927E0,-1.069013379E-3,-6.108647794E-4,-6.108647794E-4,1.374445765E-3
1.629498188E0,1.527161949E-4,-6.108647794E-4,-1.832594397E-3,1.937751335E-3
1.631653448E0,-1.069013379E-3,-6.108647794E-4,-6.108647794E-4,1.374445765E-3
1.633808709E0,-1.069013379E-3,-6.108647794E-4,-6.108647794E-4,1.374445765E-3
1.635963969E0,1.374445739E-3,6.108647794E-4,6.108647794E-4,1.623395407E-3
1.638119230E0,1.527161949E-4,-6.108647794E-4,-6.108647794E-4,8.772877485E-4
1.640274542E0,1.527161949E-4,-3.054323839E-3,6.108647794E-4,3.118552890E-3
1.642429802E0,1.374445739E-3,-6.108647794E-4,-6.108647794E-4,1.623395407E-3
1.644585063E0,2.596175298E-3,5.497782957E-3,6.108647794E-4,6.110556390E-3
1.646740323E0,-1.069013379E-3,-3.054323839E-3,6.108647794E-4,3.293150391E-3
1.648895636E0,1.374445739E-3,-1.832594397E-3,6.108647794E-4,2.370792925E-3
1.651050896E0,1.374445739E-3,3.054323839E-3,-6.108647794E-4,3.404577945E-3
1.653206105E0,1.374445739E-3,-1.832594397E-3,6.108647794E-4,2.370792925E-3
1.655361417E0,2.596175298E-3,-4.276053514E-3,6.108647794E-4,5.039634472E-3
1.657516677E0,1.527161949E-4,-1.832594397E-3,6.108647794E-4,1.937751335E-3
1.659671938E0,1.527161949E-4,-1.832594397E-3,-6.108647794E-4,1.937751335E-3
1.661827198E0,-1.069013379E-3,-4.276053514E-3,6.108647794E-4,4.449784157E-3
1.663982511E0,1.527161949E-4,-6.108647794E-4,-6.108647794E-4,8.772877485E-4
1.666137719E0,1.527161949E-4,-1.832594397E-3,-6.108647794E-4,1.937751335E-3
1.668293032E0,1.374445739E-3,6.108647794E-4,6.108647794E-4,1.623395407E-3
1.670448292E0,1.374445739E-3,3.054323839E-3,-6.108647794E-4,3.404577945E-3
1.672603552E0,-2.290742937E-3,-4.276053514E-3,-6.108647794E-4,4.889303902E-3
1.674758813E0,1.527161949E-4,6.108647794E-4,6.108647794E-4,8.772877485E-4
1.676914073E0,2.596175298E-3,6.108647794E-4,6.108647794E-4,2.736135548E-3
1.679069386E0,1.374445739E-3,-6.108647794E-4,-6.108647794E-4,1.623395407E-3
1.681224646E0,-1.069013379E-3,-1.832594397E-3,-6.108647794E-4,2.207792473E-3
1.683379907E0,1.527161949E-4,-3.054323839E-3,6.108647794E-4,3.118552890E-3
1.685535167E0,-1.069013379E-3,-1.832594397E-3,-6.108647794E-4,2.207792473E-3
1.687690427E0,1.527161949E-4,6.108647794E-4,-6.108647794E-4,8.772877485E-4
1.689845688E0,1.527161949E-4,-3.054323839E-3,6.108647794E-4,3.118552890E-3
1.692000948E0,1.374445739E-3,1.832594397E-3,-6.108647794E-4,2.370792925E-3
1.694156261E0,1.527161949E-4,-1.832594397E-3,6.108647794E-4,1.937751335E-3
1.696311521E0,-1.069013379E-3,-6.108647794E-4,-6.108647794E-4,1.374445765E-3
1.698466782E0,-1.069013379E-3,-4.276053514E-3,6.108647794E-4,4.449784157E-3
1.700622042E0,1.527161949E-4,-4.276053514E-3,6.108647794E-4,4.322165160E-3
1.702777302E0,-1.069013379E-3,-5.497782957E-3,6.108647794E-4,5.633965107E-3
1.704932563E0,1.374445739E-3,-9.162971750E-3,-6.108647794E-4,9.285596812E-3
1.707087875E0,1.527161949E-4,-1.832594397E-3,6.108647794E-4,1.937751335E-3
1.709243136E0,-1.069013379E-3,-3.054323839E-3,6.108647794E-4,3.293150391E-3
1.711398396E0,1.527161949E-4,-3.054323839E-3,1.832594397E-3,3.565195447E-3
1.713553657E0,2.596175298E-3,1.832594397E-3,-6.108647794E-4,3.235998174E-3
1.715708969E0,1.527161949E-4,-5.497782957E-3,6.108647794E-4,5.533723471E-3
1.717864230E0,1.527161949E-4,-4.276053514E-3,6.108647794E-4,4.322165160E-3
1.720019490E0,-1.069013379E-3,-1.832594397E-3,6.108647794E-4,2.207792473E-3
1.722174750E0,-1.069013379E-3,-6.108647794E-4,6.108647794E-4,1.374445765E-3
1.724330011E0,-1.069013379E-3,-4.276053514E-3,-6.108647794E-4,4.449784157E-3
1.726485271E0,1.527161949E-4,-1.832594397E-3,-6.108647794E-4,1.937751335E-3
1.728640532E0,1.527161949E-4,-3.054323839E-3,6.108647794E-4,3.118552890E-3
1.730795792E0,1.527161949E-4,-4.276053514E-3,6.108647794E-4,4.322165160E-3
1.732951052E0,1.374445739E-3,-4.276053514E-3,6.108647794E-4,4.532867804E-3
1.735106365E0,1.527161949E-4,-1.832594397E-3,-6.108647794E-4,1.937751335E-3
1.737261625E0,1.527161949E-4,-3.054323839E-3,-6.108647794E-4,3.118552890E-3
1.739416886E0,-1.069013379E-3,-6.108647794E-4,-6.108647794E-4,1.374445765E-3
1.741572146E0,-1.069013379E-3,-1.832594397E-3,6.108647794E-4,2.207792473E-3
1.743727459E0,2.596175298E-3,-3.054323839E-3,-6.108647794E-4,4.054895322E-3
1.745882719E0,1.527161949E-4,-6.108647794E-4,-6.108647794E-4,8.772877485E-4
1.748037980E0,1.527161949E-4,-1.832594397E-3,-1.832594397E-3,2.596175395E-3
1.750193240E0,-2.290742937E-3,-1.832594397E-3,6.108647794E-4,2.996508169E-3
1.752348500E0,-1.069013379E-3,-1.832594397E-3,6.108647794E-4,2.207792473E-3
1.754503761E0,1.527161949E-4,-6.108647794E-4,6.108647794E-4,8.772877485E-4
1.756659021E0,1.527161949E-4,-1.832594397E-3,6.108647794E-4,1.937751335E-3
1.758814282E0,1.527161949E-4,-4.276053514E-3,6.108647794E-4,4.322165160E-3
1.760969594E0,1.374445739E-3,-6.108647794E-4,6.108647794E-4,1.623395407E-3
1.763124855E0,2.596175298E-3,-3.054323839E-3,-6.108647794E-4,4.054895322E-3
1.765280115E0,1.527161949E-4,-3.054323839E-3,-6.108647794E-4,3.118552890E-3
1.767435375E0,-1.069013379E-3,-5.497782957E-3,6.108647794E-4,5.633965107E-3
1.769590636E0,-1.069013379E-3,-5.497782957E-3,6.108647794E-4,5.633965107E-3
1.771745948E0,1.374445739E-3,-1.832594397E-3,6.108647794E-4,2.370792925E-3
1.773901157E0,-1.069013379E-3,-4.276053514E-3,-6.108647794E-4,4.449784157E-3
1.776056469E0,1.527161949E-4,-1.832594397E-3,6.108647794E-4,1.937751335E-3
1.778211730E0,-2.290742937E-3,-6.719512399E-3,6.108647794E-4,7.125482852E-3
1.780366990E0,1.374445739E-3,-4.276053514E-3,6.108647794E-4,4.532867804E-3
1.782522250E0,1.374445739E-3,-6.719512399E-3,6.108647794E-4,6.885789988E-3
1.784677563E0,1.374445739E-3,6.108647794E-4,-6.108647794E-4,1.623395407E-3
1.786832823E0,1.527161949E-4,-3.054323839E-3,-6.108647794E-4,3.118552890E-3
1.788988084E0,1.374445739E-3,-4.276053514E-3,-6.108647794E-4,4.532867804E-3
1.791143344E0,1.374445739E-3,-1.832594397E-3,-6.108647794E-4,2.370792925E-3
1.793298605E0,-1.069013379E-3,-6.108647794E-4,-6.108647794E-4,1.374445765E-3
1.795453865E0,-1.069013379E-3,-4.276053514E-3,6.108647794E-4,4.449784157E-3
1.797609177E0,1.374445739E-3,6.108647794E-4,-6.108647794E-4,1.623395407E-3
1.799764438E0,1.374445739E-3,-1.832594397E-3,6.108647794E-4,2.370792925E-3
1.801919646E0,1.527161949E-4,-4.276053514E-3,6.108647794E-4,4.322165160E-3
1.804074959E0,1.527161949E-4,-6.108647794E-4,-6.108647794E-4,8.772877485E-4
1.806230219E0,-2.290742937E-3,-3.054323839E-3,-6.108647794E-4,3.866465194E-3
1.808385480E0,1.374445739E-3,-1.832594397E-3,-6.108647794E-4,2.370792925E-3
1.810540740E0,1.374445739E-3,-3.054323839E-3,6.108647794E-4,3.404577945E-3
1.812696000E0,1.527161949E-4,-3.054323839E-3,6.108647794E-4,3.118552890E-3
1.814851261E0,-1.069013379E-3,-6.108647794E-4,6.108647794E-4,1.374445765E-3
1.817006573E0,-1.069013379E-3,-6.108647794E-4,6.108647794E-4,1.374445765E-3
1.819161834E0,1.527161949E-4,-3.054323839E-3,1.832594397E-3,3.565195447E-3
1.821317094E0,1.527161949E-4,-3.054323839E-3,6.108647794E-4,3.118552890E-3
1.823472355E0,1.527161949E-4,-6.108647794E-4,6.108647794E-4,8.772877485E-4
1.825627667E0,-1.069013379E-3,-4.276053514E-3,1.832594397E-3,4.773450061E-3
1.827782875E0,1.527161949E-4,-3.054323839E-3,6.108647794E-4,3.118552890E-3
1.829938188E0,-1.069013379E-3,-4.276053514E-3,6.108647794E-4,4.449784157E-3
1.832093448E0,-1.069013379E-3,-1.832594397E-3,6.108647794E-4,2.207792473E-3
1.834248709E0,1.527161949E-4,-5.497782957E-3,-6.108647794E-4,5.533723471E-3
1.836403969E0,1.527161949E-4,1.832594397E-3,-6.108647794E-4,1.937751335E-3
1.838559230E0,1.527161949E-4,3.054323839E-3,-6.108647794E-4,3.118552890E-3
1.840714542E0,1.527161949E-4,-6.108647794E-4,6.108647794E-4,8.772877485E-4
1.842869750E0,2.596175298E-3,-1.832594397E-3,-6.108647794E-4,3.235998174E-3
1.845025063E0,1.527161949E-4,-6.108647794E-4,6.108647794E-4,8.772877485E-4
1.847180323E0,1.527161949E-4,-6.108647794E-4,-6.108647794E-4,8.772877485E-4
1.849335584E0,1.527161949E-4,-1.832594397E-3,-6.108647794E-4,1.937751335E-3
1.851490844E0,1.527161949E-4,-6.108647794E-4,-6.108647794E-4,8.772877485E-4
1.853646157E0,1.527161949E-4,-3.054323839E-3,-1.832594397E-3,3.565195447E-3
1.855801365E0,1.527161949E-4,-4.276053514E-3,-6.108647794E-4,4.322165160E-3
1.857956677E0,-1.069013379E-3,-3.054323839E-3,1.832594397E-3,3.718882351E-3
1.860111938E0,1.527161949E-4,-1.832594397E-3,-6.108647794E-4,1.937751335E-3
1.862267198E0,1.527161949E-4,1.832594397E-3,-1.832594397E-3,2.596175395E-3
1.864422459E0,1.527161949E-4,-6.108647794E-4,-6.108647794E-4,8.772877485E-4
1.866577719E0,1.374445739E-3,-1.832594397E-3,6.108647794E-4,2.370792925E-3
1.868732980E0,1.527161949E-4,-6.108647794E-4,-6.108647794E-4,8.772877485E-4
1.870888292E0,-2.290742937E-3,-4.276053514E-3,6.108647794E-4,4.889303902E-3
1.873043552E0,-2.290742937E-3,-4.276053514E-3,6.108647794E-4,4.889303902E-3
1.875198813E0,1.527161949E-4,-3.054323839E-3,6.108647794E-4,3.118552890E-3
1.877354073E0,1.374445739E-3,1.832594397E-3,-6.108647794E-4,2.370792925E-3
1.879509334E0,1.374445739E-3,3.054323839E-3,6.108647794E-4,3.404577945E-3
1.881664594E0,2.596175298E-3,1.832594397E-3,6.108647794E-4,3.235998174E-3
1.883819855E0,2.596175298E-3,-6.108647794E-4,-6.108647794E-4,2.736135548E-3
1.885975167E0,1.374445739E-3,6.108647794E-4,-6.108647794E-4,1.623395407E-3
1.888130427E0,-2.290742937E-3,-4.276053514E-3,6.108647794E-4,4.889303902E-3
1.890285688E0,-1.069013379E-3,-6.108647794E-4,6.108647794E-4,1.374445765E-3
1.892440948E0,1.527161949E-4,-1.832594397E-3,-6.108647794E-4,1.937751335E-3
1.894596209E0,-2.290742937E-3,-6.719512399E-3,-6.108647794E-4,7.125482852E-3
1.896751521E0,-1.069013379E-3,-5.497782957E-3,6.108647794E-4,5.633965107E-3
1.898906730E0,1.527161949E-4,6.108647794E-4,6.108647794E-4,8.772877485E-4
1.901061990E0,1.527161949E-4,-1.832594397E-3,6.108647794E-4,1.937751335E-3
1.903217302E0,-1.069013379E-3,-1.832594397E-3,-6.108647794E-4,2.207792473E-3
1.905372563E0,2.596175298E-3,1.832594397E-3,6.108647794E-4,3.235998174E-3
1.907527823E0,-2.290742937E-3,-6.108647794E-4,-6.108647794E-4,2.448226861E-3
1.909683084E0,1.374445739E-3,-1.832594397E-3,6.108647794E-4,2.370792925E-3
1.911838344E0,1.527161949E-4,-1.832594397E-3,6.108647794E-4,1.937751335E-3
1.913993605E0,1.374445739E-3,-6.108647794E-4,-6.108647794E-4,1.623395407E-3
1.916148917E0,1.527161949E-4,-1.832594397E-3,-6.108647794E-4,1.937751335E-3
1.918304125E0,1.374445739E-3,-6.108647794E-4,6.108647794E-4,1.623395407E-3
1.920459438E0,1.527161949E-4,3.054323839E-3,-6.108647794E-4,3.118552890E-3
1.922614698E0,1.374445739E-3,-3.054323839E-3,-6.108647794E-4,3.404577945E-3
1.924769959E0,1.527161949E-4,-3.054323839E-3,6.108647794E-4,3.118552890E-3
1.926925219E0,-1.069013379E-3,-4.276053514E-3,-6.108647794E-4,4.449784157E-3
1.929080480E0,1.527161949E-4,-4.276053514E-3,6.108647794E-4,4.322165160E-3
1.931235740E0,1.527161949E-4,-6.108647794E-4,-6.108647794E-4,8.772877485E-4
1.933391052E0,1.527161949E-4,-6.719512399E-3,6.108647794E-4,6.748949911E-3
1.935546313E0,1.527161949E-4,1.832594397E-3,6.108647794E-4,1.937751335E-3
1.937701573E0,1.527161949E-4,-3.054323839E-3,6.108647794E-4,3.118552890E-3
1.939856834E0,-1.069013379E-3,-3.054323839E-3,6.108647794E-4,3.293150391E-3
1.942012094E0,1.527161949E-4,-6.108647794E-4,-6.108647794E-4,8.772877485E-4
1.944167407E0,-1.069013379E-3,-4.276053514E-3,-6.108647794E-4,4.449784157E-3
1.946322667E0,-1.069013379E-3,-1.832594397E-3,-6.108647794E-4,2.207792473E-3
1.948477927E0,1.527161949E-4,-1.832594397E-3,6.108647794E-4,1.937751335E-3
1.950633188E0,1.374445739E-3,-1.832594397E-3,-6.108647794E-4,2.370792925E-3
1.952788448E0,1.374445739E-3,6.108647794E-4,-6.108647794E-4,1.623395407E-3
1.954943709E0,1.374445739E-3,3.054323839E-3,-6.108647794E-4,3.404577945E-3
1.957098969E0,-2.290742937E-3,-6.108647794E-4,-6.108647794E-4,2.448226861E-3
1.959254230E0,1.527161949E-4,-3.054323839E-3,-6.108647794E-4,3.118552890E-3
1.961409542E0,1.527161949E-4,-1.832594397E-3,1.832594397E-3,2.596175395E-3
1.963564802E0,-1.069013379E-3,-6.108647794E-4,-6.108647794E-4,1.374445765E-3
1.965720063E0,1.374445739E-3,6.108647794E-4,-6.108647794E-4,1.623395407E-3
1.967875323E0,1.374445739E-3,-1.832594397E-3,-6.108647794E-4,2.370792925E-3
1.970030584E0,-1.069013379E-3,-3.054323839E-3,-6.108647794E-4,3.293150391E-3
1.972185844E0,-2.290742937E-3,-4.276053514E-3,6.108647794E-4,4.889303902E-3
1.974341105E0,1.527161949E-4,6.108647794E-4,6.108647794E-4,8.772877485E-4
1.976496417E0,-2.290742937E-3,-1.832594397E-3,-6.108647794E-4,2.996508169E-3
1.978651677E0,1.374445739E-3,4.276053514E-3,-6.108647794E-4,4.532867804E-3
1.980806938E0,1.527161949E-4,-6.108647794E-4,6.108647794E-4,8.772877485E-4
1.982962198E0,2.596175298E-3,-1.832594397E-3,6.108647794E-4,3.235998174E-3
1.985117459E0,1.374445739E-3,6.108647794E-4,-6.108647794E-4,1.623395407E-3
1.987272719E0,-1.069013379E-3,-1.832594397E-3,-6.108647794E-4,2.207792473E-3
1.989427980E0,1.374445739E-3,1.832594397E-3,-6.108647794E-4,2.370792925E-3
1.991583240E0,1.527161949E-4,6.108647794E-4,6.108647794E-4,8.772877485E-4
1.993738552E0,1.374445739E-3,-6.108647794E-4,1.832594397E-3,2.370792925E-3
1.995893813E0,1.374445739E-3,6.108647794E-4,6.108647794E-4,1.623395407E-3
1.998049073E0,-1.069013379E-3,-6.108647794E-4,6.108647794E-4,1.374445765E-3
2.000204334E0,-2.290742937E-3,-3.054323839E-3,-6.108647794E-4,3.866465194E-3
2.002359594E0,-2.290742937E-3,-3.054323839E-3,6.108647794E-4,3.866465194E-3
2.004514855E0,1.527161949E-4,-1.832594397E-3,6.108647794E-4,1.937751335E-3
2.006670115E0,1.527161949E-4,6.108647794E-4,-1.832594397E-3,1.937751335E-3
2.008825427E0,1.374445739E-3,-1.832594397E-3,-6.108647794E-4,2.370792925E-3
2.010980688E0,1.374445739E-3,3.054323839E-3,-6.108647794E-4,3.404577945E-3
2.013135948E0,1.374445739E-3,-1.832594397E-3,6.108647794E-4,2.370792925E-3
2.015291209E0,1.527161949E-4,-3.054323839E-3,6.108647794E-4,3.118552890E-3
2.017446469E0,1.374445739E-3,-1.832594397E-3,6.108647794E-4,2.370792925E-3
2.019601730E0,1.374445739E-3,6.108647794E-4,-6.108647794E-4,1.623395407E-3
2.021756990E0,1.527161949E-4,1.832594397E-3,-6.108647794E-4,1.937751335E-3
2.023912302E0,1.527161949E-4,-1.832594397E-3,6.108647794E-4,1.937751335E-3
2.026067563E0,-1.069013379E-3,-6.108647794E-4,6.108647794E-4,1.374445765E-3
2.028222823E0,2.596175298E-3,4.276053514E-3,-6.108647794E-4,5.039634472E-3
2.030378084E0,1.374445739E-3,1.832594397E-3,6.108647794E-4,2.370792925E-3
2.032533344E0,1.374445739E-3,1.832594397E-3,-1.832594397E-3,2.933582372E-3
2.034688605E0,1.527161949E-4,-1.832594397E-3,6.108647794E-4,1.937751335E-3
2.036843917E0,-1.069013379E-3,6.108647794E-4,6.108647794E-4,1.374445765E-3
2.038999177E0,-2.290742937E-3,-3.054323839E-3,6.108647794E-4,3.866465194E-3
2.041154438E0,1.374445739E-3,1.832594397E-3,-6.108647794E-4,2.370792925E-3
2.043309698E0,1.374445739E-3,4.276053514E-3,-1.832594397E-3,4.850993400E-3
2.045464959E0,2.596175298E-3,5.497782957E-3,-6.108647794E-4,6.110556390E-3
2.047620219E0,1.374445739E-3,5.497782957E-3,-6.108647794E-4,5.699813533E-3
2.049775480E0,1.527161949E-4,-1.832594397E-3,6.108647794E-4,1.937751335E-3
2.051930792E0,1.527161949E-4,-1.832594397E-3,6.108647794E-4,1.937751335E-3
2.054086052E0,2.596175298E-3,-6.108647794E-4,6.108647794E-4,2.736135548E-3
2.056241313E0,1.527161949E-4,1.832594397E-3,-6.108647794E-4,1.937751335E-3
2.058396573E0,1.374445739E-3,6.108647794E-4,-1.832594397E-3,2.370792925E-3
2.060551834E0,-1.069013379E-3,-1.832594397E-3,-6.108647794E-4,2.207792473E-3
2.062707094E0,-1.069013379E-3,-1.832594397E-3,1.832594397E-3,2.803496754E-3
2.064862355E0,-1.069013379E-3,-1.832594397E-3,6.108647794E-4,2.207792473E-3
2.067017615E0,-1.069013379E-3,-6.108647794E-4,6.108647794E-4,1.374445765E-3
2.069172927E0,1.527161949E-4,-6.108647794E-4,-6.108647794E-4,8.772877485E-4
2.071328188E0,1.527161949E-4,-6.108647794E-4,6.108647794E-4,8.772877485E-4
2.073483448E0,1.527161949E-4,6.108647794E-4,-6.108647794E-4,8.772877485E-4
2.075638709E0,1.527161949E-4,6.108647794E-4,-6.108647794E-4,8.772877485E-4
2.077793969E0,1.527161949E-4,4.276053514E-3,-6.108647794E-4,4.322165160E-3
2.079949230E0,1.527161949E-4,1.832594397E-3,-6.108647794E-4,1.937751335E-3
2.082104490E0,1.527161949E-4,-1.832594397E-3,-6.108647794E-4,1.937751335E-3
2.084259802E0,1.527161949E-4,6.108647794E-4,6.108647794E-4,8.772877485E-4
2.086415063E0,1.527161949E-4,6.108647794E-4,-6.108647794E-4,8.772877485E-4
2.088570323E0,1.527161949E-4,6.108647794E-4,-6.108647794E-4,8.772877485E-4
2.090725584E0,-1.069013379E-3,-6.108647794E-4,-6.108647794E-4,1.374445765E-3
2.092880844E0,1.527161949E-4,1.832594397E-3,6.108647794E-4,1.937751335E-3
2.095036105E0,1.527161949E-4,-4.276053514E-3,-6.108647794E-4,4.322165160E-3
2.097191417E0,1.527161949E-4,5.497782957E-3,6.108647794E-4,5.533723471E-3
2.099346625E0,-1.069013379E-3,3.054323839E-3,6.108647794E-4,3.293150391E-3
2.101501938E0,-1.069013379E-3,3.054323839E-3,-1.832594397E-3,3.718882351E-3
2.103657198E0,2.596175298E-3,4.276053514E-3,-6.108647794E-4,5.039634472E-3
2.105812459E0,1.527161949E-4,3.054323839E-3,-6.108647794E-4,3.118552890E-3
2.107967719E0,1.527161949E-4,-6.108647794E-4,-6.108647794E-4,8.772877485E-4
2.110122980E0,-1.069013379E-3,-6.108647794E-4,-6.108647794E-4,1.374445765E-3
2.112278240E0,-2.290742937E-3,-4.276053514E-3,6.108647794E-4,4.889303902E-3
2.114433552E0,1.374445739E-3,1.832594397E-3,6.108647794E-4,2.370792925E-3
2.116588813E0,1.527161949E-4,1.832594397E-3,-6.108647794E-4,1.937751335E-3
2.118744073E0,1.527161949E-4,1.832594397E-3,6.108647794E-4,1.937751335E-3
2.120899334E0,-1.069013379E-3,3.054323839E-3,6.108647794E-4,3.293150391E-3
2.123054594E0,3.817904973E-3,-1.832594397E-3,6.108647794E-4,4.278779778E-3
2.125209855E0,-1.069013379E-3,-1.832594397E-3,6.108647794E-4,2.207792473E-3
2.127365115E0,1.527161949E-4,3.054323839E-3,-6.108647794E-4,3.118552890E-3
2.129520375E0,1.374445739E-3,3.054323839E-3,-6.108647794E-4,3.404577945E-3
2.131675636E0,1.527161949E-4,6.108647794E-4,-6.108647794E-4,8.772877485E-4
2.133830948E0,-2.290742937E-3,1.832594397E-3,-6.108647794E-4,2.996508169E-3
2.135986209E0,-1.069013379E-3,-1.832594397E-3,-6.108647794E-4,2.207792473E-3
2.138141469E0,1.527161949E-4,-1.832594397E-3,-6.108647794E-4,1.937751335E-3
2.140296730E0,1.527161949E-4,6.108647794E-4,-6.108647794E-4,8.772877485E-4
2.142451990E0,-1.069013379E-3,6.108647794E-4,-6.108647794E-4,1.374445765E-3
2.144607250E0,1.527161949E-4,1.832594397E-3,-6.108647794E-4,1.937751335E-3
2.146762511E0,1.527161949E-4,1.832594397E-3,6.108647794E-4,1.937751335E-3
2.148917771E0,1.527161949E-4,3.054323839E-3,1.832594397E-3,3.565195447E-3
2.151073032E0,1.527161949E-4,1.832594397E-3,6.108647794E-4,1.937751335E-3
2.153228344E0,1.527161949E-4,6.108647794E-4,6.108647794E-4,8.772877485E-4
2.155383605E0,1.527161949E-4,1.832594397E-3,6.108647794E-4,1.937751335E-3
2.157538865E0,2.596175298E-3,6.108647794E-4,6.108647794E-4,2.736135548E-3
2.159694125E0,1.527161949E-4,6.108647794E-4,6.108647794E-4,8.772877485E-4
2.161849386E0,-2.290742937E-3,6.108647794E-4,-6.108647794E-4,2.448226861E-3
2.164004646E0,1.374445739E-3,3.054323839E-3,6.108647794E-4,3.404577945E-3
2.166159907E0,1.527161949E-4,6.108647794E-4,-6.108647794E-4,8.772877485E-4
2.168315219E0,1.527161949E-4,1.832594397E-3,-6.108647794E-4,1.937751335E-3
2.170470480E0,1.527161949E-4,1.832594397E-3,-6.108647794E-4,1.937751335E-3
2.172625740E0,2.596175298E-3,6.108647794E-4,6.108647794E-4,2.736135548E-3
2.174781000E0,1.527161949E-4,-1.832594397E-3,-6.108647794E-4,1.937751335E-3
2.176936261E0,1.527161949E-4,4.276053514E-3,-6.108647794E-4,4.322165160E-3
2.179091521E0,-1.069013379E-3,-3.054323839E-3,6.108647794E-4,3.293150391E-3
2.181246834E0,1.527161949E-4,-6.108647794E-4,1.832594397E-3,1.937751335E-3
2.183402042E0,-1.069013379E-3,-6.108647794E-4,6.108647794E-4,1.374445765E-3
2.185557355E0,1.374445739E-3,1.832594397E-3,-6.108647794E-4,2.370792925E-3
2.187712615E0,1.374445739E-3,3.054323839E-3,-6.108647794E-4,3.404577945E-3
2.189867875E0,1.374445739E-3,6.108647794E-4,-6.108647794E-4,1.623395407E-3
2.192023136E0,1.527161949E-4,3.054323839E-3,-6.108647794E-4,3.118552890E-3
2.194178396E0,1.374445739E-3,-6.108647794E-4,6.108647794E-4,1.623395407E-3
2.196333657E0,-1.069013379E-3,1.832594397E-3,-6.108647794E-4,2.207792473E-3
2.198488917E0,1.527161949E-4,6.108647794E-4,6.108647794E-4,8.772877485E-4
2.200644230E0,-1.069013379E-3,1.832594397E-3,-6.108647794E-4,2.207792473E-3
2.202799438E0,-1.069013379E-3,1.832594397E-3,6.108647794E-4,2.207792473E-3
2.204954750E0,-2.290742937E-3,1.832594397E-3,-6.108647794E-4,2.996508169E-3
2.207110011E0,-1.069013379E-3,1.832594397E-3,-6.108647794E-4,2.207792473E-3
2.209265271E0,-1.069013379E-3,-6.108647794E-4,-6.108647794E-4,1.374445765E-3
2.211420532E0,1.527161949E-4,-6.108647794E-4,-1.832594397E-3,1.937751335E-3
2.213575844E0,1.527161949E-4,6.108647794E-4,6.108647794E-4,8.772877485E-4
2.215731105E0,1.374445739E-3,-6.108647794E-4,6.108647794E-4,1.623395407E-3
2.217886365E0,-1.069013379E-3,6.108647794E-4,-6.108647794E-4,1.374445765E-3
2.220041625E0,1.374445739E-3,1.832594397E-3,-6.108647794E-4,2.370792925E-3
2.222196886E0,-2.290742937E-3,-6.108647794E-4,-6.108647794E-4,2.448226861E-3
2.224352146E0,1.374445739E-3,3.054323839E-3,6.108647794E-4,3.404577945E-3
2.226507407E0,-1.069013379E-3,1.832594397E-3,6.108647794E-4,2.207792473E-3
2.228662667E0,2.596175298E-3,4.276053514E-3,-6.108647794E-4,5.039634472E-3
2.230817927E0,-2.290742937E-3,4.276053514E-3,6.108647794E-4,4.889303902E-3
2.232973188E0,1.527161949E-4,6.108647794E-4,-6.108647794E-4,8.772877485E-4
2.235128500E0,1.527161949E-4,6.108647794E-4,-6.108647794E-4,8.772877485E-4
2.237283761E0,1.527161949E-4,1.832594397E-3,-6.108647794E-4,1.937751335E-3
2.239439021E0,1.527161949E-4,3.054323839E-3,-6.108647794E-4,3.118552890E-3
2.241594282E0,1.527161949E-4,6.108647794E-4,-6.108647794E-4,8.772877485E-4
2.243749542E0,1.374445739E-3,5.497782957E-3,6.108647794E-4,5.699813533E-3
2.245904855E0,1.527161949E-4,4.276053514E-3,-6.108647794E-4,4.322165160E-3
2.248060063E0,1.374445739E-3,6.108647794E-4,-6.108647794E-4,1.623395407E-3
2.250215323E0,-1.069013379E-3,4.276053514E-3,6.108647794E-4,4.449784157E-3
2.252370636E0,1.374445739E-3,1.832594397E-3,6.108647794E-4,2.370792925E-3
2.254525844E0,-1.069013379E-3,-6.108647794E-4,6.108647794E-4,1.374445765E-3
2.256681157E0,-1.069013379E-3,6.108647794E-4,-6.108647794E-4,1.374445765E-3
2.258836417E0,1.374445739E-3,3.054323839E-3,-6.108647794E-4,3.404577945E-3
2.260991677E0,-1.069013379E-3,3.054323839E-3,6.108647794E-4,3.293150391E-3
2.263146938E0,1.527161949E-4,3.054323839E-3,-1.832594397E-3,3.565195447E-3
2.265302198E0,1.374445739E-3,1.832594397E-3,-6.108647794E-4,2.370792925E-3
2.267457511E0,-1.069013379E-3,1.832594397E-3,-6.108647794E-4,2.207792473E-3
2.269612719E0,-1.069013379E-3,-6.108647794E-4,-6.108647794E-4,1.374445765E-3
2.271768032E0,1.374445739E-3,1.832594397E-3,6.108647794E-4,2.370792925E-3
2.273923292E0,1.527161949E-4,1.832594397E-3,6.108647794E-4,1.937751335E-3
2.276078552E0,1.527161949E-4,-6.108647794E-4,6.108647794E-4,8.772877485E-4
2.278233813E0,-1.069013379E-3,6.108647794E-4,6.108647794E-4,1.374445765E-3
2.280389073E0,1.374445739E-3,3.054323839E-3,-6.108647794E-4,3.404577945E-3
2.282544334E0,1.527161949E-4,6.108647794E-4,-6.108647794E-4,8.772877485E-4
2.284699594E0,1.527161949E-4,6.108647794E-4,6.108647794E-4,8.772877485E-4
2.286854855E0,1.527161949E-4,6.108647794E-4,6.108647794E-4,8.772877485E-4
2.289010115E0,1.527161949E-4,6.108647794E-4,-6.108647794E-4,8.772877485E-4
2.291165427E0,1.527161949E-4,3.054323839E-3,-6.108647794E-4,3.118552890E-3
2.293320688E0,1.527161949E-4,3.054323839E-3,-6.108647794E-4,3.118552890E-3
2.295475948E0,1.527161949E-4,7.941242307E-3,6.108647794E-4,7.966166418E-3
2.297631209E0,1.527161949E-4,1.832594397E-3,6.108647794E-4,1.937751335E-3
2.299786469E0,2.596175298E-3,4.276053514E-3,6.108647794E-4,5.039634472E-3
2.301941730E0,1.374445739E-3,6.108647794E-4,-6.108647794E-4,1.623395407E-3
2.304096990E0,1.527161949E-4,6.108647794E-4,6.108647794E-4,8.772877485E-4
2.306252250E0,-2.290742937E-3,1.832594397E-3,-6.108647794E-4,2.996508169E-3
2.308407563E0,-1.069013379E-3,1.832594397E-3,6.108647794E-4,2.207792473E-3
2.310562823E0,1.527161949E-4,4.276053514E-3,-6.108647794E-4,4.322165160E-3
2.312718084E0,1.374445739E-3,1.832594397E-3,-6.108647794E-4,2.370792925E-3
2.314873344E0,-1.069013379E-3,-1.832594397E-3,-6.108647794E-4,2.207792473E-3
2.317028605E0,1.527161949E-4,3.054323839E-3,6.108647794E-4,3.118552890E-3
2.319183865E0,1.374445739E-3,3.054323839E-3,-6.108647794E-4,3.404577945E-3
2.321339125E0,1.527161949E-4,1.832594397E-3,-6.108647794E-4,1.937751335E-3
2.323494386E0,1.527161949E-4,1.832594397E-3,6.108647794E-4,1.937751335E-3
2.325649698E0,1.374445739E-3,1.832594397E-3,-6.108647794E-4,2.370792925E-3
2.327804959E0,-1.069013379E-3,-1.832594397E-3,-6.108647794E-4,2.207792473E-3
2.329960219E0,1.527161949E-4,-1.832594397E-3,6.108647794E-4,1.937751335E-3
2.332115480E0,1.374445739E-3,1.832594397E-3,6.108647794E-4,2.370792925E-3
2.334270740E0,1.527161949E-4,-6.108647794E-4,6.108647794E-4,8.772877485E-4
2.336426000E0,-1.069013379E-3,-6.108647794E-4,6.108647794E-4,1.374445765E-3
2.338581261E0,-3.512472380E-3,-1.832594397E-3,-6.108647794E-4,4.008618243E-3
2.340736521E0,1.527161949E-4,1.832594397E-3,-6.108647794E-4,1.937751335E-3
2.342891834E0,-2.290742937E-3,-6.108647794E-4,-6.108647794E-4,2.448226861E-3
2.345047042E0,-1.069013379E-3,-6.108647794E-4,-6.108647794E-4,1.374445765E-3
2.347202355E0,1.527161949E-4,3.054323839E-3,-1.832594397E-3,3.565195447E-3
2.349357615E0,1.374445739E-3,1.832594397E-3,-6.108647794E-4,2.370792925E-3
2.351512875E0,1.374445739E-3,1.832594397E-3,6.108647794E-4,2.370792925E-3
2.353668136E0,1.527161949E-4,4.276053514E-3,6.108647794E-4,4.322165160E-3
2.355823396E0,1.527161949E-4,3.054323839E-3,1.832594397E-3,3.565195447E-3
2.357978657E0,1.374445739E-3,1.832594397E-3,6.108647794E-4,2.370792925E-3
2.360133917E0,1.374445739E-3,-6.108647794E-4,6.108647794E-4,1.623395407E-3
2.362289230E0,-1.069013379E-3,-1.832594397E-3,6.108647794E-4,2.207792473E-3
2.364444438E0,1.374445739E-3,4.276053514E-3,6.108647794E-4,4.532867804E-3
2.366599750E0,-1.069013379E-3,-4.276053514E-3,-6.108647794E-4,4.449784157E-3
2.368755011E0,1.527161949E-4,-6.108647794E-4,6.108647794E-4,8.772877485E-4
2.370910271E0,1.527161949E-4,6.108647794E-4,6.108647794E-4,8.772877485E-4
2.373065532E0,-1.069013379E-3,6.108647794E-4,-6.108647794E-4,1.374445765E-3
2.375220792E0,1.527161949E-4,1.832594397E-3,-6.108647794E-4,1.937751335E-3
2.377376052E0,1.374445739E-3,3.054323839E-3,-6.108647794E-4,3.404577945E-3
2.379531313E0,1.527161949E-4,3.054323839E-3,6.108647794E-4,3.118552890E-3
2.381686625E0,-1.069013379E-3,6.108647794E-4,-6.108647794E-4,1.374445765E-3
2.383841886E0,1.527161949E-4,6.108647794E-4,-6.108647794E-4,8.772877485E-4
2.385997146E0,-1.069013379E-3,-1.832594397E-3,-6.108647794E-4,2.207792473E-3
2.388152407E0,-1.069013379E-3,-1.832594397E-3,1.832594397E-3,2.803496754E-3
2.390307667E0,-1.069013379E-3,6.108647794E-4,6.108647794E-4,1.374445765E-3
2.392462927E0,1.374445739E-3,1.832594397E-3,-6.108647794E-4,2.370792925E-3
2.394618188E0,1.374445739E-3,1.832594397E-3,-1.832594397E-3,2.933582372E-3
2.396773448E0,1.527161949E-4,6.108647794E-4,6.108647794E-4,8.772877485E-4
2.398928709E0,1.527161949E-4,-3.054323839E-3,6.108647794E-4,3.118552890E-3
2.401083969E0,1.527161949E-4,-3.054323839E-3,-6.108647794E-4,3.118552890E-3
2.403239282E0,-1.069013379E-3,-4.276053514E-3,6.108647794E-4,4.449784157E-3
2.405394542E0,1.527161949E-4,3.054323839E-3,-6.108647794E-4,3.118552890E-3
2.407549802E0,1.527161949E-4,1.832594397E-3,6.108647794E-4,1.937751335E-3
2.409705063E0,2.596175298E-3,1.832594397E-3,-6.108647794E-4,3.235998174E-3
2.411860323E0,2.596175298E-3,3.054323839E-3,-1.832594397E-3,4.407654990E-3
2.414015584E0,2.596175298E-3,3.054323839E-3,-6.108647794E-4,4.054895322E-3
2.416170844E0,-1.069013379E-3,6.108647794E-4,6.108647794E-4,1.374445765E-3
2.418326105E0,1.374445739E-3,3.054323839E-3,6.108647794E-4,3.404577945E-3
2.420481365E0,1.527161949E-4,3.054323839E-3,-1.832594397E-3,3.565195447E-3
2.422636625E0,-1.069013379E-3,-6.108647794E-4,-6.108647794E-4,1.374445765E-3
2.424791938E0,1.374445739E-3,6.108647794E-4,-6.108647794E-4,1.623395407E-3
2.426947198E0,1.527161949E-4,-6.108647794E-4,-6.108647794E-4,8.772877485E-4
2.429102459E0,1.527161949E-4,-3.054323839E-3,-6.108647794E-4,3.118552890E-3
2.431257719E0,-1.069013379E-3,-6.108647794E-4,6.108647794E-4,1.374445765E-3
2.433412980E0,1.527161949E-4,1.832594397E-3,-6.108647794E-4,1.937751335E-3
2.435568240E0,1.527161949E-4,1.832594397E-3,-6.108647794E-4,1.937751335E-3
2.437723552E0,1.374445739E-3,-6.108647794E-4,6.108647794E-4,1.623395407E-3
2.439878813E0,1.527161949E-4,1.832594397E-3,-6.108647794E-4,1.937751335E-3
2.442034073E0,1.374445739E-3,6.108647794E-4,-6.108647794E-4,1.623395407E-3
2.444189282E0,1.374445739E-3,-6.108647794E-4,-6.108647794E-4,1.623395407E-3
2.446344594E0,1.374445739E-3,3.054323839E-3,6.108647794E-4,3.404577945E-3
2.448499855E0,1.527161949E-4,-1.832594397E-3,-6.108647794E-4,1.937751335E-3
2.450655115E0,1.527161949E-4,6.108647794E-4,6.108647794E-4,8.772877485E-4
2.452810375E0,3.817904973E-3,1.832594397E-3,6.108647794E-4,4.278779778E-3
2.454965636E0,1.527161949E-4,-1.832594397E-3,-6.108647794E-4,1.937751335E-3
2.457120896E0,-1.069013379E-3,-4.276053514E-3,6.108647794E-4,4.449784157E-3
2.459276157E0,1.374445739E-3,-1.832594397E-3,-6.108647794E-4,2.370792925E-3
2.461431417E0,1.527161949E-4,-1.832594397E-3,6.108647794E-4,1.937751335E-3
2.463586730E0,1.527161949E-4,6.108647794E-4,6.108647794E-4,8.772877485E-4
2.465741990E0,1.527161949E-4,-1.832594397E-3,6.108647794E-4,1.937751335E-3
2.467897250E0,1.374445739E-3,-3.054323839E-3,-6.108647794E-4,3.404577945E-3
2.470052511E0,1.527161949E-4,6.108647794E-4,-1.832594397E-3,1.937751335E-3
2.472207771E0,1.527161949E-4,-1.832594397E-3,6.108647794E-4,1.937751335E-3
2.474363032E0,-2.290742937E-3,-3.054323839E-3,-6.108647794E-4,3.866465194E-3
2.476518292E0,1.374445739E-3,-6.108647794E-4,6.108647794E-4,1.623395407E-3
2.478673605E0,1.527161949E-4,5.497782957E-3,6.108647794E-4,5.533723471E-3
2.480828865E0,-1.069013379E-3,6.108647794E-4,6.108647794E-4,1.374445765E-3
2.482984073E0,-1.069013379E-3,-6.108647794E-4,-6.108647794E-4,1.374445765E-3
2.485139386E0,1.527161949E-4,6.108647794E-4,-6.108647794E-4,8.772877485E-4
2.487294646E0,-1.069013379E-3,-3.054323839E-3,-6.108647794E-4,3.293150391E-3
2.489449907E0,1.374445739E-3,-1.832594397E-3,-6.108647794E-4,2.370792925E-3
2.491605167E0,1.374445739E-3,-6.108647794E-4,6.108647794E-4,1.623395407E-3
2.493760427E0,1.374445739E-3,-1.832594397E-3,-6.108647794E-4,2.370792925E-3
2.495915688E0,-1.069013379E-3,-3.054323839E-3,6.108647794E-4,3.293150391E-3
2.498070948E0,1.527161949E-4,-1.832594397E-3,6.108647794E-4,1.937751335E-3
2.500226209E0,1.374445739E-3,-4.276053514E-3,6.108647794E-4,4.532867804E-3
2.502381469E0,-1.069013379E-3,-6.108647794E-4,-6.108647794E-4,1.374445765E-3
2.504536730E0,1.527161949E-4,-6.108647794E-4,6.108647794E-4,8.772877485E-4
2.506692042E0,1.374445739E-3,-1.832594397E-3,6.108647794E-4,2.370792925E-3
2.508847302E0,1.527161949E-4,-3.054323839E-3,6.108647794E-4,3.118552890E-3
2.511002563E0,1.527161949E-4,5.497782957E-3,-6.108647794E-4,5.533723471E-3
2.513157823E0,-2.290742937E-3,6.108647794E-4,-6.108647794E-4,2.448226861E-3
2.515313084E0,-1.069013379E-3,-1.832594397E-3,-6.108647794E-4,2.207792473E-3
2.517468344E0,1.527161949E-4,-3.054323839E-3,-6.108647794E-4,3.118552890E-3
2.519623605E0,1.527161949E-4,-1.832594397E-3,-6.108647794E-4,1.937751335E-3
2.521778865E0,1.527161949E-4,6.108647794E-4,6.108647794E-4,8.772877485E-4
2.523934125E0,1.527161949E-4,-1.832594397E-3,-6.108647794E-4,1.937751335E-3
2.526089386E0,2.596175298E-3,-6.108647794E-4,-6.108647794E-4,2.736135548E-3
2.528244698E0,1.527161949E-4,-4.276053514E-3,6.108647794E-4,4.322165160E-3
2.530399959E0,1.527161949E-4,-1.832594397E-3,6.108647794E-4,1.937751335E-3
2.532555219E0,1.527161949E-4,-3.054323839E-3,-6.108647794E-4,3.118552890E-3
2.534710480E0,1.527161949E-4,-6.108647794E-4,-6.108647794E-4,8.772877485E-4
2.536865740E0,1.374445739E-3,-6.108647794E-4,6.108647794E-4,1.623395407E-3
2.539021000E0,1.527161949E-4,-3.054323839E-3,-6.108647794E-4,3.118552890E-3
2.541176261E0,-1.069013379E-3,-3.054323839E-3,-6.108647794E-4,3.293150391E-3
2.543331521E0,-1.069013379E-3,1.832594397E-3,6.108647794E-4,2.207792473E-3
2.545486782E0,-1.069013379E-3,1.832594397E-3,6.108647794E-4,2.207792473E-3
2.547642094E0,-1.069013379E-3,-6.108647794E-4,6.108647794E-4,1.374445765E-3
2.549797355E0,1.374445739E-3,-1.832594397E-3,-6.108647794E-4,2.370792925E-3
2.551952563E0,1.527161949E-4,-6.108647794E-4,-6.108647794E-4,8.772877485E-4
2.554107875E0,1.527161949E-4,1.832594397E-3,-6.108647794E-4,1.937751335E-3
2.556263136E0,1.374445739E-3,-6.108647794E-4,-6.108647794E-4,1.623395407E-3
2.558418396E0,1.527161949E-4,-1.832594397E-3,6.108647794E-4,1.937751335E-3
2.560573657E0,-1.069013379E-3,-4.276053514E-3,-6.108647794E-4,4.449784157E-3
2.562728917E0,-1.069013379E-3,-5.497782957E-3,-6.108647794E-4,5.633965107E-3
2.564884177E0,1.527161949E-4,-6.108647794E-4,6.108647794E-4,8.772877485E-4
2.567039438E0,1.374445739E-3,6.108647794E-4,-6.108647794E-4,1.623395407E-3
2.569194750E0,-1.069013379E-3,-1.832594397E-3,6.108647794E-4,2.207792473E-3
2.571350011E0,-1.069013379E-3,-4.276053514E-3,6.108647794E-4,4.449784157E-3
2.573505271E0,1.527161949E-4,1.832594397E-3,6.108647794E-4,1.937751335E-3
2.575660532E0,1.527161949E-4,6.108647794E-4,-6.108647794E-4,8.772877485E-4
2.577815792E0,-2.290742937E-3,-4.276053514E-3,-6.108647794E-4,4.889303902E-3
2.579971052E0,1.527161949E-4,-4.276053514E-3,-6.108647794E-4,4.322165160E-3
2.582126313E0,1.527161949E-4,-1.832594397E-3,6.108647794E-4,1.937751335E-3
2.584281573E0,-1.069013379E-3,-6.108647794E-4,-6.108647794E-4,1.374445765E-3
2.586436834E0,-1.069013379E-3,-4.276053514E-3,-6.108647794E-4,4.449784157E-3
2.588592094E0,-1.069013379E-3,-3.054323839E-3,6.108647794E-4,3.293150391E-3
2.590747355E0,2.596175298E-3,-6.108647794E-4,6.108647794E-4,2.736135548E-3
2.592902615E0,1.374445739E-3,-4.276053514E-3,6.108647794E-4,4.532867804E-3
2.595057927E0,-1.069013379E-3,-4.276053514E-3,6.108647794E-4,4.449784157E-3
2.597213188E0,1.527161949E-4,-1.832594397E-3,-6.108647794E-4,1.937751335E-3
2.599368448E0,1.374445739E-3,-6.108647794E-4,-1.832594397E-3,2.370792925E-3
2.601523709E0,1.527161949E-4,-6.108647794E-4,-6.108647794E-4,8.772877485E-4
2.603678969E0,-1.069013379E-3,-1.832594397E-3,-6.108647794E-4,2.207792473E-3
2.605834230E0,1.527161949E-4,6.108647794E-4,-6.108647794E-4,8.772877485E-4
2.607989490E0,1.374445739E-3,1.832594397E-3,-6.108647794E-4,2.370792925E-3
2.610144750E0,1.374445739E-3,-6.108647794E-4,6.108647794E-4,1.623395407E-3
2.612300063E0,1.374445739E-3,-6.108647794E-4,6.108647794E-4,1.623395407E-3
2.614455323E0,1.374445739E-3,-6.108647794E-4,-6.108647794E-4,1.623395407E-3
2.616610584E0,1.527161949E-4,-4.276053514E-3,-6.108647794E-4,4.322165160E-3
2.618765844E0,1.527161949E-4,-1.832594397E-3,6.108647794E-4,1.937751335E-3
2.620921105E0,1.527161949E-4,-6.108647794E-4,-6.108647794E-4,8.772877485E-4
2.623076365E0,1.527161949E-4,-1.832594397E-3,-6.108647794E-4,1.937751335E-3
2.625231625E0,1.374445739E-3,-6.108647794E-4,6.108647794E-4,1.623395407E-3
2.627386886E0,1.527161949E-4,-4.276053514E-3,-6.108647794E-4,4.322165160E-3
2.629542146E0,1.527161949E-4,-4.276053514E-3,-6.108647794E-4,4.322165160E-3
2.631697459E0,1.527161949E-4,-4.276053514E-3,6.108647794E-4,4.322165160E-3
2.633852667E0,1.527161949E-4,-1.832594397E-3,6.108647794E-4,1.937751335E-3
2.636007927E0,-1.069013379E-3,-1.832594397E-3,6.108647794E-4,2.207792473E-3
2.638163240E0,-1.069013379E-3,-3.054323839E-3,1.832594397E-3,3.718882351E-3
2.640318500E0,1.527161949E-4,-6.108647794E-4,6.108647794E-4,8.772877485E-4
2.642473709E0,1.527161949E-4,6.108647794E-4,6.108647794E-4,8.772877485E-4
2.644629021E0,-2.290742937E-3,-5.497782957E-3,-6.108647794E-4,5.987175997E-3
2.646784282E0,-1.069013379E-3,-1.832594397E-3,6.108647794E-4,2.207792473E-3
2.648939542E0,1.374445739E-3,-6.108647794E-4,6.108647794E-4,1.623395407E-3
2.651094802E0,1.527161949E-4,-6.108647794E-4,-1.832594397E-3,1.937751335E-3
2.653250063E0,1.374445739E-3,6.108647794E-4,6.108647794E-4,1.623395407E-3
2.655405323E0,-1.069013379E-3,-3.054323839E-3,1.832594397E-3,3.718882351E-3
2.657560636E0,1.527161949E-4,-1.832594397E-3,-6.108647794E-4,1.937751335E-3
2.659715896E0,2.596175298E-3,6.108647794E-4,6.108647794E-4,2.736135548E-3
2.661871157E0,1.527161949E-4,6.108647794E-4,-6.108647794E-4,8.772877485E-4
2.664026417E0,1.374445739E-3,-6.108647794E-4,6.108647794E-4,1.623395407E-3
2.666181625E0,1.527161949E-4,6.108647794E-4,1.832594397E-3,1.937751335E-3
2.668336886E0,1.527161949E-4,-3.054323839E-3,6.108647794E-4,3.118552890E-3
2.670492198E0,-1.069013379E-3,-4.276053514E-3,-6.108647794E-4,4.449784157E-3
2.672647459E0,-3.512472380E-3,-4.276053514E-3,6.108647794E-4,5.567337933E-3
2.674802719E0,1.527161949E-4,6.108647794E-4,-6.108647794E-4,8.772877485E-4
2.676958032E0,1.527161949E-4,-1.832594397E-3,-6.108647794E-4,1.937751335E-3
2.679113240E0,1.527161949E-4,-4.276053514E-3,6.108647794E-4,4.322165160E-3
2.681268552E0,-1.069013379E-3,-1.832594397E-3,-6.108647794E-4,2.207792473E-3
2.683423813E0,-1.069013379E-3,-6.108647794E-4,6.108647794E-4,1.374445765E-3
2.685579021E0,1.527161949E-4,-1.832594397E-3,-6.108647794E-4,1.937751335E-3
2.687734334E0,1.527161949E-4,-3.054323839E-3,-6.108647794E-4,3.118552890E-3
2.689889594E0,1.374445739E-3,6.108647794E-4,-6.108647794E-4,1.623395407E-3
2.692044855E0,1.527161949E-4,-6.108647794E-4,-6.108647794E-4,8.772877485E-4
2.694200115E0,-1.069013379E-3,-1.832594397E-3,-6.108647794E-4,2.207792473E-3
2.696355375E0,-1.069013379E-3,-6.108647794E-4,-6.108647794E-4,1.374445765E-3
2.698510636E0,1.527161949E-4,6.108647794E-4,6.108647794E-4,8.772877485E-4
2.700665896E0,1.527161949E-4,6.108647794E-4,-6.108647794E-4,8.772877485E-4
2.702821157E0,1.374445739E-3,-4.276053514E-3,-6.108647794E-4,4.532867804E-3
2.704976417E0,1.374445739E-3,-1.832594397E-3,6.108647794E-4,2.370792925E-3
2.707131730E0,1.527161949E-4,-1.832594397E-3,6.108647794E-4,1.937751335E-3
2.709286990E0,1.527161949E-4,-1.832594397E-3,-6.108647794E-4,1.937751335E-3
2.711442250E0,1.374445739E-3,-4.276053514E-3,-6.108647794E-4,4.532867804E-3
2.713597511E0,1.527161949E-4,-1.832594397E-3,-6.108647794E-4,1.937751335E-3
2.715752771E0,1.527161949E-4,-6.108647794E-4,6.108647794E-4,8.772877485E-4
2.717908032E0,-1.069013379E-3,-6.108647794E-4,6.108647794E-4,1.374445765E-3
2.720063292E0,1.527161949E-4,1.832594397E-3,-1.832594397E-3,2.596175395E-3
2.722218552E0,-2.290742937E-3,-6.108647794E-4,-6.108647794E-4,2.448226861E-3
2.724373813E0,-1.069013379E-3,-3.054323839E-3,-6.108647794E-4,3.293150391E-3
2.726529073E0,1.527161949E-4,-6.108647794E-4,-6.108647794E-4,8.772877485E-4
2.728684334E0,1.527161949E-4,1.832594397E-3,6.108647794E-4,1.937751335E-3
2.730839594E0,1.527161949E-4,-6.108647794E-4,-6.108647794E-4,8.772877485E-4
2.732994855E0,-1.069013379E-3,-6.108647794E-4,-1.832594397E-3,2.207792473E-3
2.735150167E0,1.527161949E-4,-1.832594397E-3,6.108647794E-4,1.937751335E-3
2.737305427E0,-1.069013379E-3,-3.054323839E-3,-6.108647794E-4,3.293150391E-3
2.739460688E0,1.527161949E-4,-1.832594397E-3,6.108647794E-4,1.937751335E-3
2.741615948E0,1.527161949E-4,-1.832594397E-3,-6.108647794E-4,1.937751335E-3
2.743771209E0,1.527161949E-4,-3.054323839E-3,6.108647794E-4,3.118552890E-3
2.745926469E0,-2.290742937E-3,-3.054323839E-3,6.108647794E-4,3.866465194E-3
2.748081730E0,1.374445739E-3,-6.108647794E-4,-6.108647794E-4,1.623395407E-3
2.750236990E0,1.527161949E-4,6.108647794E-4,-6.108647794E-4,8.772877485E-4
2.752392250E0,1.527161949E-4,-6.108647794E-4,-6.108647794E-4,8.772877485E-4
2.754547511E0,-1.069013379E-3,1.832594397E-3,-6.108647794E-4,2.207792473E-3
2.756702771E0,-1.069013379E-3,-1.832594397E-3,6.108647794E-4,2.207792473E-3
2.758858084E0,1.527161949E-4,-6.108647794E-4,-6.108647794E-4,8.772877485E-4
2.761013292E0,1.527161949E-4,3.054323839E-3,-6.108647794E-4,3.118552890E-3
2.763168605E0,1.527161949E-4,-6.108647794E-4,6.108647794E-4,8.772877485E-4
2.765323865E0,1.527161949E-4,-3.054323839E-3,6.108647794E-4,3.118552890E-3
2.767479125E0,1.374445739E-3,-6.108647794E-4,-6.108647794E-4,1.623395407E-3
2.769634386E0,1.374445739E-3,-1.832594397E-3,6.108647794E-4,2.370792925E-3
2.771789646E0,-1.069013379E-3,-1.832594397E-3,-6.108647794E-4,2.207792473E-3
2.773944907E0,1.374445739E-3,-6.108647794E-4,6.108647794E-4,1.623395407E-3
2.776100167E0,1.527161949E-4,-3.054323839E-3,6.108647794E-4,3.118552890E-3
2.778255427E0,-1.069013379E-3,-6.108647794E-4,6.108647794E-4,1.374445765E-3
2.780410688E0,1.374445739E-3,6.108647794E-4,-6.108647794E-4,1.623395407E-3
2.782566000E0,1.374445739E-3,-6.108647794E-4,-6.108647794E-4,1.623395407E-3
2.784721261E0,1.374445739E-3,-3.054323839E-3,6.108647794E-4,3.404577945E-3
2.786876521E0,2.596175298E-3,6.108647794E-4,6.108647794E-4,2.736135548E-3
2.789031782E0,1.527161949E-4,-6.108647794E-4,-6.108647794E-4,8.772877485E-4
2.791187042E0,-1.069013379E-3,-6.108647794E-4,-6.108647794E-4,1.374445765E-3
2.793342302E0,-1.069013379E-3,-6.108647794E-4,-6.108647794E-4,1.374445765E-3
2.795497563E0,-1.069013379E-3,-1.832594397E-3,-6.108647794E-4,2.207792473E-3
2.797652823E0,-1.069013379E-3,6.108647794E-4,6.108647794E-4,1.374445765E-3
2.799808084E0,1.374445739E-3,1.832594397E-3,6.108647794E-4,2.370792925E-3
2.801963344E0,1.374445739E-3,-6.108647794E-4,1.832594397E-3,2.370792925E-3
2.804118605E0,1.374445739E-3,-1.832594397E-3,-6.108647794E-4,2.370792925E-3
2.806273865E0,1.374445739E-3,-6.108647794E-4,-6.108647794E-4,1.623395407E-3
2.808429125E0,1.527161949E-4,1.832594397E-3,-6.108647794E-4,1.937751335E-3
2.810584386E0,-2.290742937E-3,-3.054323839E-3,6.108647794E-4,3.866465194E-3
2.812739646E0,1.527161949E-4,-3.054323839E-3,6.108647794E-4,3.118552890E-3
2.814894907E0,1.527161949E-4,-1.832594397E-3,-6.108647794E-4,1.937751335E-3
2.817050219E0,1.527161949E-4,-6.108647794E-4,-6.108647794E-4,8.772877485E-4
2.819205480E0,-1.069013379E-3,6.108647794E-4,1.832594397E-3,2.207792473E-3
2.821360740E0,-2.290742937E-3,-6.108647794E-4,-6.108647794E-4,2.448226861E-3
2.823516000E0,1.527161949E-4,6.108647794E-4,1.832594397E-3,1.937751335E-3
2.825671261E0,1.374445739E-3,6.108647794E-4,-6.108647794E-4,1.623395407E-3
2.827826521E0,1.374445739E-3,6.108647794E-4,-6.108647794E-4,1.623395407E-3
2.829981782E0,-1.069013379E-3,6.108647794E-4,-6.108647794E-4,1.374445765E-3
2.832137042E0,-1.069013379E-3,-1.832594397E-3,-6.108647794E-4,2.207792473E-3
2.834292355E0,2.596175298E-3,1.832594397E-3,6.108647794E-4,3.235998174E-3
2.836447563E0,1.374445739E-3,-6.108647794E-4,6.108647794E-4,1.623395407E-3
2.838602823E0,2.596175298E-3,1.832594397E-3,-6.108647794E-4,3.235998174E-3
2.840758136E0,1.527161949E-4,-1.832594397E-3,-6.108647794E-4,1.937751335E-3
2.842913396E0,-1.069013379E-3,-1.832594397E-3,-1.832594397E-3,2.803496754E-3
2.845068657E0,1.527161949E-4,-6.108647794E-4,6.108647794E-4,8.772877485E-4
2.847223917E0,1.527161949E-4,6.108647794E-4,-6.108647794E-4,8.772877485E-4
2.849379177E0,2.596175298E-3,-6.108647794E-4,-6.108647794E-4,2.736135548E-3
2.851534438E0,1.527161949E-4,6.108647794E-4,-6.108647794E-4,8.772877485E-4
2.853689698E0,1.527161949E-4,6.108647794E-4,-6.108647794E-4,8.772877485E-4
2.855844959E0,1.527161949E-4,-6.108647794E-4,6.108647794E-4,8.772877485E-4
2.858000219E0,-1.069013379E-3,-3.054323839E-3,6.108647794E-4,3.293150391E-3
2.860155480E0,-1.069013379E-3,-3.054323839E-3,6.108647794E-4,3.293150391E-3
2.862310740E0,-1.069013379E-3,-1.832594397E-3,1.832594397E-3,2.803496754E-3
2.864466000E0,1.374445739E-3,3.054323839E-3,6.108647794E-4,3.404577945E-3
2.866621261E0,1.527161949E-4,-6.108647794E-4,-6.108647794E-4,8.772877485E-4
2.868776573E0,1.374445739E-3,-1.832594397E-3,-6.108647794E-4,2.370792925E-3
2.870931834E0,1.527161949E-4,1.832594397E-3,-6.108647794E-4,1.937751335E-3
2.873087094E0,1.527161949E-4,-6.108647794E-4,6.108647794E-4,8.772877485E-4
2.875242355E0,1.374445739E-3,6.108647794E-4,-6.108647794E-4,1.623395407E-3
2.877397615E0,1.527161949E-4,1.832594397E-3,-6.108647794E-4,1.937751335E-3
2.879552875E0,-1.069013379E-3,1.832594397E-3,-6.108647794E-4,2.207792473E-3
2.881708136E0,-1.069013379E-3,-6.108647794E-4,6.108647794E-4,1.374445765E-3
2.883863396E0,1.527161949E-4,1.832594397E-3,-6.108647794E-4,1.937751335E-3
2.886018657E0,1.374445739E-3,6.719512399E-3,6.108647794E-4,6.885789988E-3
2.888173917E0,-1.069013379E-3,-3.054323839E-3,-6.108647794E-4,3.293150391E-3
2.890329177E0,1.527161949E-4,-6.108647794E-4,6.108647794E-4,8.772877485E-4
2.892484438E0,-1.069013379E-3,-1.832594397E-3,-6.108647794E-4,2.207792473E-3
2.894639750E0,1.374445739E-3,5.497782957E-3,-6.108647794E-4,5.699813533E-3
2.896794959E0,1.374445739E-3,3.054323839E-3,6.108647794E-4,3.404577945E-3
2.898950271E0,1.527161949E-4,6.108647794E-4,6.108647794E-4,8.772877485E-4
2.901105532E0,-1.069013379E-3,-1.832594397E-3,6.108647794E-4,2.207792473E-3
2.903260792E0,1.527161949E-4,6.108647794E-4,-6.108647794E-4,8.772877485E-4
2.905416052E0,2.596175298E-3,3.054323839E-3,6.108647794E-4,4.054895322E-3
2.907571313E0,2.596175298E-3,3.054323839E-3,-6.108647794E-4,4.054895322E-3
2.909726573E0,1.527161949E-4,-6.108647794E-4,6.108647794E-4,8.772877485E-4
2.911881834E0,1.374445739E-3,1.832594397E-3,-6.108647794E-4,2.370792925E-3
2.914037094E0,1.527161949E-4,6.108647794E-4,6.108647794E-4,8.772877485E-4
2.916192355E0,1.527161949E-4,1.832594397E-3,6.108647794E-4,1.937751335E-3
2.918347615E0,1.527161949E-4,6.108647794E-4,-6.108647794E-4,8.772877485E-4
2.920502875E0,1.527161949E-4,6.108647794E-4,-1.832594397E-3,1.937751335E-3
2.922658136E0,1.527161949E-4,-1.832594397E-3,6.108647794E-4,1.937751335E-3
2.924813448E0,1.374445739E-3,1.832594397E-3,6.108647794E-4,2.370792925E-3
2.926968709E0,2.596175298E-3,3.054323839E-3,6.108647794E-4,4.054895322E-3
2.929123969E0,1.527161949E-4,4.276053514E-3,-6.108647794E-4,4.322165160E-3
2.931279177E0,1.374445739E-3,1.832594397E-3,-6.108647794E-4,2.370792925E-3
2.933434490E0,1.527161949E-4,1.832594397E-3,-1.832594397E-3,2.596175395E-3
2.935589698E0,1.527161949E-4,6.108647794E-4,-6.108647794E-4,8.772877485E-4
2.937745011E0,1.527161949E-4,1.832594397E-3,-6.108647794E-4,1.937751335E-3
2.939900271E0,1.374445739E-3,1.832594397E-3,-6.108647794E-4,2.370792925E-3
2.942055532E0,1.527161949E-4,-6.108647794E-4,1.832594397E-3,1.937751335E-3
2.944210792E0,1.374445739E-3,1.832594397E-3,-6.108647794E-4,2.370792925E-3
2.946366052E0,1.374445739E-3,3.054323839E-3,6.108647794E-4,3.404577945E-3
2.948521313E0,1.527161949E-4,-6.108647794E-4,6.108647794E-4,8.772877485E-4
2.950676573E0,1.527161949E-4,6.108647794E-4,-6.108647794E-4,8.772877485E-4
2.952831834E0,-1.069013379E-3,-6.108647794E-4,6.108647794E-4,1.374445765E-3
2.954987094E0,1.527161949E-4,1.832594397E-3,6.108647794E-4,1.937751335E-3
2.957142407E0,1.527161949E-4,6.108647794E-4,-6.108647794E-4,8.772877485E-4
2.959297615E0,1.374445739E-3,6.108647794E-4,6.108647794E-4,1.623395407E-3
2.961452927E0,1.374445739E-3,3.054323839E-3,6.108647794E-4,3.404577945E-3
2.963608188E0,-1.069013379E-3,6.108647794E-4,6.108647794E-4,1.374445765E-3
2.965763396E0,-1.069013379E-3,3.054323839E-3,6.108647794E-4,3.293150391E-3
2.967918709E0,1.374445739E-3,1.832594397E-3,6.108647794E-4,2.370792925E-3
2.970073917E0,-1.069013379E-3,-1.832594397E-3,-6.108647794E-4,2.207792473E-3
2.972229230E0,1.374445739E-3,3.054323839E-3,-6.108647794E-4,3.404577945E-3
2.974384490E0,-1.069013379E-3,1.832594397E-3,-6.108647794E-4,2.207792473E-3
2.976539750E0,1.527161949E-4,-6.108647794E-4,6.108647794E-4,8.772877485E-4
2.978695011E0,-1.069013379E-3,1.832594397E-3,6.108647794E-4,2.207792473E-3
2.980850271E0,-1.069013379E-3,6.108647794E-4,6.108647794E-4,1.374445765E-3
2.983005532E0,1.527161949E-4,6.108647794E-4,6.108647794E-4,8.772877485E-4
2.985160792E0,1.527161949E-4,-6.108647794E-4,6.108647794E-4,8.772877485E-4
2.987316052E0,1.527161949E-4,1.832594397E-3,-6.108647794E-4,1.937751335E-3
2.989471313E0,1.527161949E-4,1.832594397E-3,-6.108647794E-4,1.937751335E-3
2.991626573E0,1.527161949E-4,1.832594397E-3,6.108647794E-4,1.937751335E-3
2.993781886E0,1.527161949E-4,-6.108647794E-4,6.108647794E-4,8.772877485E-4
2.995937146E0,-1.069013379E-3,1.832594397E-3,6.108647794E-4,2.207792473E-3
2.998092355E0,-1.069013379E-3,1.832594397E-3,-6.108647794E-4,2.207792473E-3
3.000247667E0,-1.069013379E-3,1.832594397E-3,6.108647794E-4,2.207792473E-3
3.002402927E0,-1.069013379E-3,6.108647794E-4,-6.108647794E-4,1.374445765E-3
3.004558188E0,1.527161949E-4,6.108647794E-4,-6.108647794E-4,8.772877485E-4
3.006713448E0,1.527161949E-4,3.054323839E-3,-6.108647794E-4,3.118552890E-3
3.008868709E0,1.374445739E-3,1.832594397E-3,6.108647794E-4,2.370792925E-3
3.011023969E0,2.596175298E-3,5.497782957E-3,-1.832594397E-3,6.350129592E-3
3.013179230E0,1.374445739E-3,3.054323839E-3,6.108647794E-4,3.404577945E-3
3.015334490E0,1.527161949E-4,-6.108647794E-4,6.108647794E-4,8.772877485E-4
3.017489750E0,1.374445739E-3,3.054323839E-3,-6.108647794E-4,3.404577945E-3
3.019645011E0,-1.069013379E-3,6.108647794E-4,-6.108647794E-4,1.374445765E-3
3.021800271E0,-2.290742937E-3,6.108647794E-4,6.108647794E-4,2.448226861E-3
3.023955584E0,-1.069013379E-3,6.108647794E-4,-6.108647794E-4,1.374445765E-3
3.026110792E0,-1.069013379E-3,6.108647794E-4,-6.108647794E-4,1.374445765E-3
3.028266105E0,1.527161949E-4,-3.054323839E-3,6.108647794E-4,3.118552890E-3
3.030421365E0,1.527161949E-4,6.108647794E-4,6.108647794E-4,8.772877485E-4
3.032576625E0,1.527161949E-4,4.276053514E-3,-6.108647794E-4,4.322165160E-3
3.034731834E0,1.527161949E-4,3.054323839E-3,-6.108647794E-4,3.118552890E-3
3.036887146E0,1.527161949E-4,3.054323839E-3,-6.108647794E-4,3.118552890E-3
3.039042407E0,-1.069013379E-3,-6.108647794E-4,-6.108647794E-4,1.374445765E-3
3.041197667E0,1.527161949E-4,-6.108647794E-4,-6.108647794E-4,8.772877485E-4
3.043352927E0,1.374445739E-3,1.832594397E-3,6.108647794E-4,2.370792925E-3
3.045508188E0,1.374445739E-3,7.941242307E-3,-6.108647794E-4,8.082424528E-3
3.047663448E0,1.527161949E-4,-1.832594397E-3,-6.108647794E-4,1.937751335E-3
3.049818709E0,-1.069013379E-3,4.276053514E-3,-6.108647794E-4,4.449784157E-3
3.051973969E0,1.527161949E-4,6.108647794E-4,-6.108647794E-4,8.772877485E-4
3.054129230E0,3.817904973E-3,3.054323839E-3,6.108647794E-4,4.927316539E-3
3.056284490E0,-1.069013379E-3,6.108647794E-4,-6.108647794E-4,1.374445765E-3
3.058439750E0,-1.069013379E-3,6.108647794E-4,6.108647794E-4,1.374445765E-3
3.060595011E0,-1.069013379E-3,-6.108647794E-4,6.108647794E-4,1.374445765E-3
3.062750323E0,-2.290742937E-3,6.108647794E-4,-6.108647794E-4,2.448226861E-3
3.064905532E0,1.527161949E-4,4.276053514E-3,-6.108647794E-4,4.322165160E-3
3.067060844E0,1.527161949E-4,6.108647794E-4,-6.108647794E-4,8.772877485E-4
3.069216105E0,1.527161949E-4,6.108647794E-4,-6.108647794E-4,8.772877485E-4
3.071371365E0,1.527161949E-4,6.108647794E-4,6.108647794E-4,8.772877485E-4
3.073526625E0,1.527161949E-4,1.832594397E-3,-6.108647794E-4,1.937751335E-3
3.075681886E0,1.527161949E-4,3.054323839E-3,6.108647794E-4,3.118552890E-3
3.077837146E0,1.374445739E-3,1.832594397E-3,-6.108647794E-4,2.370792925E-3
3.079992407E0,1.527161949E-4,-1.832594397E-3,6.108647794E-4,1.937751335E-3
3.082147667E0,1.527161949E-4,6.108647794E-4,-6.108647794E-4,8.772877485E-4
3.084302927E0,1.527161949E-4,3.054323839E-3,6.108647794E-4,3.118552890E-3
3.086458188E0,-1.069013379E-3,-1.832594397E-3,6.108647794E-4,2.207792473E-3
3.088613448E0,1.374445739E-3,4.276053514E-3,-6.108647794E-4,4.532867804E-3
3.090768709E0,1.527161949E-4,1.832594397E-3,-6.108647794E-4,1.937751335E-3
3.092924021E0,1.527161949E-4,6.108647794E-4,6.108647794E-4,8.772877485E-4
3.095079282E0,-1.069013379E-3,4.276053514E-3,-1.832594397E-3,4.773450061E-3
3.097234542E0,-1.069013379E-3,-6.108647794E-4,6.108647794E-4,1.374445765E-3
3.099389802E0,-1.069013379E-3,6.108647794E-4,-6.108647794E-4,1.374445765E-3
3.101545011E0,1.527161949E-4,-1.832594397E-3,-6.108647794E-4,1.937751335E-3
3.103700271E0,-1.069013379E-3,-6.108647794E-4,1.832594397E-3,2.207792473E-3
3.105855532E0,-1.069013379E-3,-6.108647794E-4,6.108647794E-4,1.374445765E-3
3.108010844E0,-1.069013379E-3,6.108647794E-4,6.108647794E-4,1.374445765E-3
3.110166105E0,1.527161949E-4,6.108647794E-4,-6.108647794E-4,8.772877485E-4
3.112321365E0,-2.290742937E-3,-6.108647794E-4,-6.108647794E-4,2.448226861E-3
3.114476625E0,1.527161949E-4,4.276053514E-3,-6.108647794E-4,4.322165160E-3
3.116631886E0,-2.290742937E-3,6.108647794E-4,6.108647794E-4,2.448226861E-3
3.118787146E0,1.374445739E-3,3.054323839E-3,-6.108647794E-4,3.404577945E-3
3.120942407E0,1.527161949E-4,3.054323839E-3,-6.108647794E-4,3.118552890E-3
3.123097667E0,-1.069013379E-3,1.832594397E-3,-1.832594397E-3,2.803496754E-3
3.125252927E0,2.596175298E-3,4.276053514E-3,-6.108647794E-4,5.039634472E-3
3.127408188E0,1.374445739E-3,3.054323839E-3,-1.832594397E-3,3.817904848E-3
3.129563448E0,1.374445739E-3,-1.832594397E-3,6.108647794E-4,2.370792925E-3
3.131718709E0,1.527161949E-4,-6.108647794E-4,-6.108647794E-4,8.772877485E-4
3.133874021E0,1.374445739E-3,6.108647794E-4,-6.108647794E-4,1.623395407E-3
3.136029230E0,1.374445739E-3,4.276053514E-3,6.108647794E-4,4.532867804E-3
3.138184490E0,1.374445739E-3,-1.832594397E-3,1.832594397E-3,2.933582372E-3
3.140339802E0,1.527161949E-4,6.108647794E-4,-1.832594397E-3,1.937751335E-3
3.142495063E0,2.596175298E-3,1.832594397E-3,-6.108647794E-4,3.235998174E-3
3.144650323E0,1.374445739E-3,6.719512399E-3,6.108647794E-4,6.885789988E-3
3.146805584E0,1.527161949E-4,3.054323839E-3,1.832594397E-3,3.565195447E-3
3.148960792E0,-2.290742937E-3,-6.108647794E-4,-6.108647794E-4,2.448226861E-3
3.151116105E0,1.527161949E-4,4.276053514E-3,-6.108647794E-4,4.322165160E-3
3.153271365E0,1.527161949E-4,6.108647794E-4,-6.108647794E-4,8.772877485E-4
3.155426625E0,-1.069013379E-3,1.832594397E-3,6.108647794E-4,2.207792473E-3
3.157581886E0,1.527161949E-4,1.832594397E-3,-6.108647794E-4,1.937751335E-3
3.159737146E0,1.527161949E-4,6.108647794E-4,-6.108647794E-4,8.772877485E-4
3.161892407E0,1.374445739E-3,1.832594397E-3,-6.108647794E-4,2.370792925E-3
3.164047667E0,1.527161949E-4,1.832594397E-3,6.108647794E-4,1.937751335E-3
3.166202927E0,-1.069013379E-3,-3.054323839E-3,-6.108647794E-4,3.293150391E-3
3.168358188E0,1.374445739E-3,3.054323839E-3,6.108647794E-4,3.404577945E-3
3.170513448E0,-1.069013379E-3,6.108647794E-4,-6.108647794E-4,1.374445765E-3
3.172668709E0,1.527161949E-4,3.054323839E-3,6.108647794E-4,3.118552890E-3
3.174823969E0,-2.290742937E-3,3.054323839E-3,-6.108647794E-4,3.866465194E-3
3.176979282E0,-1.069013379E-3,1.832594397E-3,-6.108647794E-4,2.207792473E-3
3.179134542E0,1.374445739E-3,3.054323839E-3,6.108647794E-4,3.404577945E-3
3.181289750E0,-1.069013379E-3,6.108647794E-4,1.832594397E-3,2.207792473E-3
3.183445011E0,1.527161949E-4,6.108647794E-4,6.108647794E-4,8.772877485E-4
3.185600323E0,-2.290742937E-3,-1.832594397E-3,6.108647794E-4,2.996508169E-3
3.187755584E0,1.527161949E-4,-6.108647794E-4,6.108647794E-4,8.772877485E-4
3.189910844E0,1.374445739E-3,-6.108647794E-4,-6.108647794E-4,1.623395407E-3
3.192066052E0,-1.069013379E-3,6.108647794E-4,-6.108647794E-4,1.374445765E-3
3.194221365E0,1.527161949E-4,1.832594397E-3,-6.108647794E-4,1.937751335E-3
3.196376625E0,1.527161949E-4,3.054323839E-3,-6.108647794E-4,3.118552890E-3
3.198531886E0,-1.069013379E-3,-6.108647794E-4,-6.108647794E-4,1.374445765E-3
3.200687146E0,1.527161949E-4,-1.832594397E-3,-6.108647794E-4,1.937751335E-3
3.202842407E0,1.527161949E-4,1.832594397E-3,-6.108647794E-4,1.937751335E-3
3.204997667E0,1.374445739E-3,3.054323839E-3,-6.108647794E-4,3.404577945E-3
3.207152927E0,1.527161949E-4,6.108647794E-4,-6.108647794E-4,8.772877485E-4
3.209308188E0,1.374445739E-3,6.108647794E-4,-1.832594397E-3,2.370792925E-3
3.211463448E0,1.374445739E-3,4.276053514E-3,-1.832594397E-3,4.850993400E-3
3.213618709E0,1.527161949E-4,-6.108647794E-4,-6.108647794E-4,8.772877485E-4
3.215773969E0,-1.069013379E-3,-1.832594397E-3,-6.108647794E-4,2.207792473E-3
3.217929230E0,-1.069013379E-3,6.108647794E-4,-6.108647794E-4,1.374445765E-3
3.220084490E0,2.596175298E-3,7.941242307E-3,-6.108647794E-4,8.377148163E-3
3.222239802E0,-1.069013379E-3,-1.832594397E-3,-6.108647794E-4,2.207792473E-3
3.224395011E0,-1.069013379E-3,1.832594397E-3,-1.832594397E-3,2.803496754E-3
3.226550323E0,1.527161949E-4,-6.108647794E-4,-6.108647794E-4,8.772877485E-4
3.228705584E0,-2.290742937E-3,6.108647794E-4,-6.108647794E-4,2.448226861E-3
3.230860792E0,1.527161949E-4,-6.108647794E-4,6.108647794E-4,8.772877485E-4
3.233016105E0,1.527161949E-4,3.054323839E-3,-6.108647794E-4,3.118552890E-3
3.235171365E0,-1.069013379E-3,1.832594397E-3,-6.108647794E-4,2.207792473E-3
3.237326625E0,1.374445739E-3,1.832594397E-3,6.108647794E-4,2.370792925E-3
3.239481886E0,1.527161949E-4,-1.832594397E-3,6.108647794E-4,1.937751335E-3
3.241637146E0,1.527161949E-4,3.054323839E-3,-6.108647794E-4,3.118552890E-3
3.243792407E0,1.374445739E-3,6.719512399E-3,-6.108647794E-4,6.885789988E-3
3.245947667E0,1.374445739E-3,5.497782957E-3,-6.108647794E-4,5.699813533E-3
3.248102927E0,1.374445739E-3,1.832594397E-3,-6.108647794E-4,2.370792925E-3
3.250258188E0,1.527161949E-4,3.054323839E-3,6.108647794E-4,3.118552890E-3
3.252413448E0,1.527161949E-4,1.832594397E-3,1.832594397E-3,2.596175395E-3
3.254568709E0,-1.069013379E-3,-6.108647794E-4,-6.108647794E-4,1.374445765E-3
3.256723969E0,-2.290742937E-3,-3.054323839E-3,-6.108647794E-4,3.866465194E-3
3.258879230E0,1.527161949E-4,6.108647794E-4,1.832594397E-3,1.937751335E-3
3.261034490E0,1.527161949E-4,3.054323839E-3,6.108647794E-4,3.118552890E-3
3.263189750E0,-1.069013379E-3,1.832594397E-3,-6.108647794E-4,2.207792473E-3
3.265345011E0,1.527161949E-4,-6.108647794E-4,6.108647794E-4,8.772877485E-4
3.267500271E0,1.374445739E-3,3.054323839E-3,6.108647794E-4,3.404577945E-3
3.269655532E0,1.527161949E-4,1.832594397E-3,6.108647794E-4,1.937751335E-3
3.271810844E0,1.374445739E-3,3.054323839E-3,-1.832594397E-3,3.817904848E-3
3.273966105E0,1.527161949E-4,3.054323839E-3,-6.108647794E-4,3.118552890E-3
3.276121365E0,1.374445739E-3,6.108647794E-4,-6.108647794E-4,1.623395407E-3
3.278276625E0,1.527161949E-4,6.108647794E-4,6.108647794E-4,8.772877485E-4
3.280431886E0,2.596175298E-3,3.054323839E-3,-3.054323839E-3,5.039634352E-3
3.282587146E0,1.527161949E-4,3.054323839E-3,-6.108647794E-4,3.118552890E-3
3.284742407E0,-1.069013379E-3,-1.832594397E-3,6.108647794E-4,2.207792473E-3
3.286897667E0,1.527161949E-4,4.276053514E-3,6.108647794E-4,4.322165160E-3
3.289052927E0,1.374445739E-3,-1.832594397E-3,1.832594397E-3,2.933582372E-3
3.291208188E0,-1.069013379E-3,3.054323839E-3,6.108647794E-4,3.293150391E-3
3.293363448E0,-1.069013379E-3,6.108647794E-4,-6.108647794E-4,1.374445765E-3
3.295518709E0,1.374445739E-3,-6.108647794E-4,-6.108647794E-4,1.623395407E-3
3.297673969E0,1.374445739E-3,3.054323839E-3,6.108647794E-4,3.404577945E-3
3.299829230E0,1.374445739E-3,7.941242307E-3,-6.108647794E-4,8.082424528E-3
3.301984490E0,1.527161949E-4,-1.832594397E-3,6.108647794E-4,1.937751335E-3
3.304139750E0,1.527161949E-4,-6.108647794E-4,-6.108647794E-4,8.772877485E-4
3.306295011E0,1.527161949E-4,1.832594397E-3,-6.108647794E-4,1.937751335E-3
3.308450323E0,-1.069013379E-3,-6.108647794E-4,-6.108647794E-4,1.374445765E-3
3.310605532E0,-1.069013379E-3,-6.108647794E-4,6.108647794E-4,1.374445765E-3
3.312760792E0,2.596175298E-3,1.832594397E-3,6.108647794E-4,3.235998174E-3
3.314916052E0,1.527161949E-4,3.054323839E-3,-1.832594397E-3,3.565195447E-3
3.317071313E0,1.374445739E-3,-3.054323839E-3,-6.108647794E-4,3.404577945E-3
3.319226625E0,1.527161949E-4,-1.832594397E-3,6.108647794E-4,1.937751335E-3
3.321381834E0,-2.290742937E-3,-3.054323839E-3,6.108647794E-4,3.866465194E-3
3.323537146E0,-1.069013379E-3,-6.108647794E-4,6.108647794E-4,1.374445765E-3
3.325692407E0,2.596175298E-3,1.832594397E-3,-6.108647794E-4,3.235998174E-3
3.327847615E0,1.527161949E-4,3.054323839E-3,6.108647794E-4,3.118552890E-3
3.330002927E0,1.527161949E-4,6.108647794E-4,6.108647794E-4,8.772877485E-4
3.332158136E0,1.527161949E-4,-6.108647794E-4,-6.108647794E-4,8.772877485E-4
3.334313448E0,1.527161949E-4,6.108647794E-4,-6.108647794E-4,8.772877485E-4
3.336468709E0,1.527161949E-4,-6.108647794E-4,-6.108647794E-4,8.772877485E-4
3.338623969E0,1.527161949E-4,-6.108647794E-4,-6.108647794E-4,8.772877485E-4
3.340779177E0,1.527161949E-4,-4.276053514E-3,-6.108647794E-4,4.322165160E-3
3.342934490E0,1.374445739E-3,-6.108647794E-4,-6.108647794E-4,1.623395407E-3
3.345089750E0,-1.069013379E-3,-4.276053514E-3,-6.108647794E-4,4.449784157E-3
3.347245011E0,1.527161949E-4,6.108647794E-4,-6.108647794E-4,8.772877485E-4
3.349400271E0,-1.069013379E-3,-6.108647794E-4,6.108647794E-4,1.374445765E-3
3.351555532E0,1.527161949E-4,-6.108647794E-4,-6.108647794E-4,8.772877485E-4
3.353710792E0,-1.069013379E-3,-1.832594397E-3,-6.108647794E-4,2.207792473E-3
3.355866052E0,1.374445739E-3,-1.832594397E-3,-6.108647794E-4,2.370792925E-3
3.358021313E0,1.527161949E-4,-1.832594397E-3,6.108647794E-4,1.937751335E-3
3.360176573E0,1.527161949E-4,3.054323839E-3,-6.108647794E-4,3.118552890E-3
3.362331834E0,-1.069013379E-3,1.832594397E-3,-6.108647794E-4,2.207792473E-3
3.364487094E0,1.527161949E-4,-1.832594397E-3,-6.108647794E-4,1.937751335E-3
3.366642355E0,1.527161949E-4,-4.276053514E-3,-6.108647794E-4,4.322165160E-3
3.368797615E0,-1.069013379E-3,-4.276053514E-3,6.108647794E-4,4.449784157E-3
3.370952875E0,-1.069013379E-3,-4.276053514E-3,-6.108647794E-4,4.449784157E-3
3.373108136E0,1.374445739E-3,-1.832594397E-3,-6.108647794E-4,2.370792925E-3
3.375263396E0,-2.290742937E-3,-6.108647794E-4,6.108647794E-4,2.448226861E-3
3.377418709E0,1.527161949E-4,1.832594397E-3,-6.108647794E-4,1.937751335E-3
3.379573969E0,-1.069013379E-3,1.832594397E-3,-6.108647794E-4,2.207792473E-3
3.381729177E0,-1.069013379E-3,-6.108647794E-4,-6.108647794E-4,1.374445765E-3
3.383884490E0,1.374445739E-3,-6.108647794E-4,-6.108647794E-4,1.623395407E-3
3.386039750E0,1.374445739E-3,3.054323839E-3,6.108647794E-4,3.404577945E-3
3.388195011E0,1.527161949E-4,6.108647794E-4,6.108647794E-4,8.772877485E-4
3.390350271E0,1.527161949E-4,1.832594397E-3,6.108647794E-4,1.937751335E-3
3.392505532E0,-1.069013379E-3,-4.276053514E-3,6.108647794E-4,4.449784157E-3
3.394660792E0,1.527161949E-4,-6.108647794E-4,-1.832594397E-3,1.937751335E-3
3.396816052E0,1.527161949E-4,6.108647794E-4,-6.108647794E-4,8.772877485E-4
3.398971313E0,1.527161949E-4,-6.108647794E-4,-6.108647794E-4,8.772877485E-4
3.401126573E0,-1.069013379E-3,-3.054323839E-3,6.108647794E-4,3.293150391E-3
3.403281834E0,1.527161949E-4,6.108647794E-4,6.108647794E-4,8.772877485E-4
3.405437094E0,1.374445739E-3,-3.054323839E-3,-6.108647794E-4,3.404577945E-3
3.407592355E0,1.527161949E-4,-6.719512399E-3,-6.108647794E-4,6.748949911E-3
3.409747615E0,1.374445739E-3,-1.832594397E-3,-6.108647794E-4,2.370792925E-3
3.411902875E0,-1.069013379E-3,-4.276053514E-3,6.108647794E-4,4.449784157E-3
3.414058136E0,1.527161949E-4,-6.108647794E-4,-1.832594397E-3,1.937751335E-3
3.416213396E0,1.527161949E-4,-1.832594397E-3,6.108647794E-4,1.937751335E-3
3.418368657E0,1.374445739E-3,-1.832594397E-3,-6.108647794E-4,2.370792925E-3
3.420523917E0,1.374445739E-3,-1.832594397E-3,6.108647794E-4,2.370792925E-3
3.422679177E0,-1.069013379E-3,-6.108647794E-4,-6.108647794E-4,1.374445765E-3
3.424834438E0,1.527161949E-4,-3.054323839E-3,-6.108647794E-4,3.118552890E-3
3.426989698E0,1.374445739E-3,6.108647794E-4,-6.108647794E-4,1.623395407E-3
3.429144959E0,1.527161949E-4,1.832594397E-3,-6.108647794E-4,1.937751335E-3
3.431300219E0,-1.069013379E-3,6.108647794E-4,-6.108647794E-4,1.374445765E-3
3.433455480E0,-2.290742937E-3,-6.108647794E-4,-6.108647794E-4,2.448226861E-3
